trial,trial_type,stimulus_type,stimulus_description,image_filename,go_type_index,response,rt,correct,timestamp
1,go,Go_stim_1,Cruz,Go_stim_1.png,0.0,space,0.4789995999999519,1,2026-03-06_15h54.16.048
2,go,Go_stim_2,Barra lateral para a esquerda,Go_stim_2.png,1.0,space,0.5636831000010716,1,2026-03-06_15h54.17.817
3,go,Go_stim_3,Barra lateral para a direita,Go_stim_3.png,2.0,space,0.4226710999992065,1,2026-03-06_15h54.19.313
4,go,Go_stim_4,Barra vertical curta,Go_stim_4.png,3.0,space,0.5740607000007003,1,2026-03-06_15h54.20.993
5,go,Go_stim_1,Cruz,Go_stim_1.png,0.0,space,0.39844989999983227,1,2026-03-06_15h54.22.369
6,go,Go_stim_2,Barra lateral para a esquerda,Go_stim_2.png,1.0,space,0.492269700000179,1,2026-03-06_15h54.24.089
7,go,Go_stim_3,Barra lateral para a direita,Go_stim_3.png,2.0,space,0.4303311000003305,1,2026-03-06_15h54.25.561
8,go,Go_stim_4,Barra vertical curta,Go_stim_4.png,3.0,space,0.475633399999424,1,2026-03-06_15h54.27.121
9,go,Go_stim_1,Cruz,Go_stim_1.png,0.0,space,0.45214519999899494,1,2026-03-06_15h54.28.648
10,go,Go_stim_2,Barra lateral para a esquerda,Go_stim_2.png,1.0,space,0.5208628000000317,1,2026-03-06_15h54.30.049
11,go,Go_stim_4,Barra vertical curta,Go_stim_4.png,3.0,space,0.3992256000001362,1,2026-03-06_15h54.31.753
12,go,Go_stim_2,Barra lateral para a esquerda,Go_stim_2.png,1.0,space,0.39857480000137,1,2026-03-06_15h54.33.209
13,nogo,NoGo_stim,Barra vertical longa,NoGo_stim.png,,space,0.4028330000001006,0,2026-03-06_15h54.34.737
14,go,Go_stim_4,Barra vertical curta,Go_stim_4.png,3.0,space,0.6615424999999959,1,2026-03-06_15h54.36.489
15,nogo,NoGo_stim,Barra vertical longa,NoGo_stim.png,,,,1,2026-03-06_15h54.38.641
16,go,Go_stim_4,Barra vertical curta,Go_stim_4.png,3.0,space,0.4658454000000347,1,2026-03-06_15h54.40.248
17,go,Go_stim_1,Cruz,Go_stim_1.png,0.0,space,0.50069110000004,1,2026-03-06_15h54.41.993
18,go,Go_stim_1,Cruz,Go_stim_1.png,0.0,space,0.5611508000001777,1,2026-03-06_15h54.43.609
19,go,Go_stim_1,Cruz,Go_stim_1.png,0.0,space,0.6212864000008267,1,2026-03-06_15h54.45.273
20,go,Go_stim_1,Cruz,Go_stim_1.png,0.0,space,0.5542832999999519,1,2026-03-06_15h54.46.777
21,go,Go_stim_2,Barra lateral para a esquerda,Go_stim_2.png,1.0,space,0.4906300000002375,1,2026-03-06_15h54.48.249
22,go,Go_stim_2,Barra lateral para a esquerda,Go_stim_2.png,1.0,space,0.41342619999886665,1,2026-03-06_15h54.49.793
23,nogo,NoGo_stim,Barra vertical longa,NoGo_stim.png,,,,1,2026-03-06_15h54.52.011
24,go,Go_stim_1,Cruz,Go_stim_1.png,0.0,space,0.41811710000001767,1,2026-03-06_15h54.53.641
25,go,Go_stim_4,Barra vertical curta,Go_stim_4.png,3.0,space,0.5641660000001139,1,2026-03-06_15h54.55.441
26,go,Go_stim_2,Barra lateral para a esquerda,Go_stim_2.png,1.0,space,0.7080781000004208,1,2026-03-06_15h54.57.105
27,go,Go_stim_1,Cruz,Go_stim_1.png,0.0,space,0.5085464000003412,1,2026-03-06_15h54.58.536
28,go,Go_stim_3,Barra lateral para a direita,Go_stim_3.png,2.0,space,0.48766189999878407,1,2026-03-06_15h55.00.097
29,nogo,NoGo_stim,Barra vertical longa,NoGo_stim.png,,,,1,2026-03-06_15h55.02.344
30,go,Go_stim_4,Barra vertical curta,Go_stim_4.png,3.0,space,0.6055243000009796,1,2026-03-06_15h55.04.096
31,go,Go_stim_4,Barra vertical curta,Go_stim_4.png,3.0,space,0.3950706000014179,1,2026-03-06_15h55.05.722
32,go,Go_stim_1,Cruz,Go_stim_1.png,0.0,space,0.46482020000075863,1,2026-03-06_15h55.07.273
33,nogo,NoGo_stim,Barra vertical longa,NoGo_stim.png,,,,1,2026-03-06_15h55.09.437
34,nogo,NoGo_stim,Barra vertical longa,NoGo_stim.png,,,,1,2026-03-06_15h55.11.733
35,go,Go_stim_1,Cruz,Go_stim_1.png,0.0,space,0.45598789999894507,1,2026-03-06_15h55.13.185
36,go,Go_stim_4,Barra vertical curta,Go_stim_4.png,3.0,space,0.4676577999998699,1,2026-03-06_15h55.14.649
37,go,Go_stim_3,Barra lateral para a direita,Go_stim_3.png,2.0,space,0.43100000000049477,1,2026-03-06_15h55.16.017
38,go,Go_stim_2,Barra lateral para a esquerda,Go_stim_2.png,1.0,space,0.3966749000010168,1,2026-03-06_15h55.17.481
39,go,Go_stim_3,Barra lateral para a direita,Go_stim_3.png,2.0,space,0.49313749999964784,1,2026-03-06_15h55.19.113
40,go,Go_stim_1,Cruz,Go_stim_1.png,0.0,space,0.4311032999994495,1,2026-03-06_15h55.20.665
41,nogo,NoGo_stim,Barra vertical longa,NoGo_stim.png,,,,1,2026-03-06_15h55.22.580
42,go,Go_stim_2,Barra lateral para a esquerda,Go_stim_2.png,1.0,space,0.4303393000009237,1,2026-03-06_15h55.24.025
43,go,Go_stim_1,Cruz,Go_stim_1.png,0.0,space,0.378954399999202,1,2026-03-06_15h55.25.568
44,go,Go_stim_3,Barra lateral para a direita,Go_stim_3.png,2.0,space,0.5159139999996114,1,2026-03-06_15h55.27.009
45,go,Go_stim_3,Barra lateral para a direita,Go_stim_3.png,2.0,space,0.42144530000041414,1,2026-03-06_15h55.28.337
46,nogo,NoGo_stim,Barra vertical longa,NoGo_stim.png,,,,1,2026-03-06_15h55.30.307
47,go,Go_stim_3,Barra lateral para a direita,Go_stim_3.png,2.0,space,0.5188799000006838,1,2026-03-06_15h55.31.770
48,go,Go_stim_3,Barra lateral para a direita,Go_stim_3.png,2.0,space,0.321348699999362,1,2026-03-06_15h55.33.352
49,nogo,NoGo_stim,Barra vertical longa,NoGo_stim.png,,,,1,2026-03-06_15h55.35.538
50,go,Go_stim_2,Barra lateral para a esquerda,Go_stim_2.png,1.0,space,0.45884249999835447,1,2026-03-06_15h55.36.984
51,go,Go_stim_4,Barra vertical curta,Go_stim_4.png,3.0,space,0.7831730999987485,1,2026-03-06_15h55.38.593
52,go,Go_stim_3,Barra lateral para a direita,Go_stim_3.png,2.0,space,0.7459804999998596,1,2026-03-06_15h55.40.457
53,nogo,NoGo_stim,Barra vertical longa,NoGo_stim.png,,,,1,2026-03-06_15h55.42.739
54,go,Go_stim_2,Barra lateral para a esquerda,Go_stim_2.png,1.0,space,0.4544430000005377,1,2026-03-06_15h55.44.393
55,go,Go_stim_2,Barra lateral para a esquerda,Go_stim_2.png,1.0,space,0.503825699999652,1,2026-03-06_15h55.46.065
56,go,Go_stim_2,Barra lateral para a esquerda,Go_stim_2.png,1.0,space,0.3691165000000183,1,2026-03-06_15h55.47.568
57,go,Go_stim_3,Barra lateral para a direita,Go_stim_3.png,2.0,space,0.4872640000012325,1,2026-03-06_15h55.49.105
58,go,Go_stim_4,Barra vertical curta,Go_stim_4.png,3.0,space,0.5305552999998326,1,2026-03-06_15h55.50.809
59,go,Go_stim_3,Barra lateral para a direita,Go_stim_3.png,2.0,space,0.4659499000008509,1,2026-03-06_15h55.52.496
60,go,Go_stim_3,Barra lateral para a direita,Go_stim_3.png,2.0,space,0.3647060999992391,1,2026-03-06_15h55.53.896
61,go,Go_stim_2,Barra lateral para a esquerda,Go_stim_2.png,1.0,space,0.43682169999920006,1,2026-03-06_15h55.55.361
62,nogo,NoGo_stim,Barra vertical longa,NoGo_stim.png,,,,1,2026-03-06_15h55.57.290
63,go,Go_stim_1,Cruz,Go_stim_1.png,0.0,space,0.46447380000063276,1,2026-03-06_15h55.58.729
64,go,Go_stim_3,Barra lateral para a direita,Go_stim_3.png,2.0,space,0.3973965999994107,1,2026-03-06_15h56.00.160
65,go,Go_stim_3,Barra lateral para a direita,Go_stim_3.png,2.0,space,0.3247119000006933,1,2026-03-06_15h56.01.585
66,go,Go_stim_1,Cruz,Go_stim_1.png,0.0,space,0.42805699999917124,1,2026-03-06_15h56.03.001
67,go,Go_stim_1,Cruz,Go_stim_1.png,0.0,space,0.46099770000000717,1,2026-03-06_15h56.04.505
68,go,Go_stim_1,Cruz,Go_stim_1.png,0.0,space,0.37837760000002163,1,2026-03-06_15h56.06.017
69,go,Go_stim_3,Barra lateral para a direita,Go_stim_3.png,2.0,space,0.4886244999997871,1,2026-03-06_15h56.07.481
70,go,Go_stim_2,Barra lateral para a esquerda,Go_stim_2.png,1.0,space,0.3560637999999017,1,2026-03-06_15h56.09.089
71,nogo,NoGo_stim,Barra vertical longa,NoGo_stim.png,,,,1,2026-03-06_15h56.11.155
72,nogo,NoGo_stim,Barra vertical longa,NoGo_stim.png,,,,1,2026-03-06_15h56.13.304
73,go,Go_stim_2,Barra lateral para a esquerda,Go_stim_2.png,1.0,space,0.4360532000009698,1,2026-03-06_15h56.14.769
74,go,Go_stim_3,Barra lateral para a direita,Go_stim_3.png,2.0,space,0.4324756999994861,1,2026-03-06_15h56.16.169
75,go,Go_stim_4,Barra vertical curta,Go_stim_4.png,3.0,space,0.5054053000003478,1,2026-03-06_15h56.17.569
76,go,Go_stim_3,Barra lateral para a direita,Go_stim_3.png,2.0,space,0.3847655000008672,1,2026-03-06_15h56.18.874
77,go,Go_stim_1,Cruz,Go_stim_1.png,0.0,space,0.45748210000056133,1,2026-03-06_15h56.20.337
78,go,Go_stim_2,Barra lateral para a esquerda,Go_stim_2.png,1.0,space,0.3932408000000578,1,2026-03-06_15h56.21.721
79,go,Go_stim_3,Barra lateral para a direita,Go_stim_3.png,2.0,space,0.3774568000008003,1,2026-03-06_15h56.23.123
80,go,Go_stim_2,Barra lateral para a esquerda,Go_stim_2.png,1.0,space,0.3611839000004693,1,2026-03-06_15h56.24.761
81,go,Go_stim_2,Barra lateral para a esquerda,Go_stim_2.png,1.0,space,0.4641088000007585,1,2026-03-06_15h56.26.410
82,nogo,NoGo_stim,Barra vertical longa,NoGo_stim.png,,,,1,2026-03-06_15h56.28.496
83,go,Go_stim_2,Barra lateral para a esquerda,Go_stim_2.png,1.0,space,0.3608039999999164,1,2026-03-06_15h56.29.929
84,go,Go_stim_1,Cruz,Go_stim_1.png,0.0,space,0.2857350000012957,1,2026-03-06_15h56.31.256
85,nogo,NoGo_stim,Barra vertical longa,NoGo_stim.png,,,,1,2026-03-06_15h56.33.525
86,nogo,NoGo_stim,Barra vertical longa,NoGo_stim.png,,,,1,2026-03-06_15h56.35.762
87,go,Go_stim_1,Cruz,Go_stim_1.png,0.0,space,0.45783399999891117,1,2026-03-06_15h56.37.472
88,go,Go_stim_1,Cruz,Go_stim_1.png,0.0,space,0.412181599998803,1,2026-03-06_15h56.38.977
89,go,Go_stim_4,Barra vertical curta,Go_stim_4.png,3.0,space,0.5464045999997325,1,2026-03-06_15h56.40.897
90,go,Go_stim_4,Barra vertical curta,Go_stim_4.png,3.0,space,0.45545189999938884,1,2026-03-06_15h56.42.369
91,go,Go_stim_3,Barra lateral para a direita,Go_stim_3.png,2.0,space,0.5282033999992564,1,2026-03-06_15h56.44.169
92,go,Go_stim_3,Barra lateral para a direita,Go_stim_3.png,2.0,space,0.34320779999870865,1,2026-03-06_15h56.45.744
93,go,Go_stim_4,Barra vertical curta,Go_stim_4.png,3.0,space,0.3681773999996949,1,2026-03-06_15h56.47.265
94,go,Go_stim_1,Cruz,Go_stim_1.png,0.0,space,0.5138984000004712,1,2026-03-06_15h56.48.897
95,go,Go_stim_2,Barra lateral para a esquerda,Go_stim_2.png,1.0,space,0.47653689999970084,1,2026-03-06_15h56.50.385
96,go,Go_stim_1,Cruz,Go_stim_1.png,0.0,space,0.3582642000001215,1,2026-03-06_15h56.51.737
97,go,Go_stim_2,Barra lateral para a esquerda,Go_stim_2.png,1.0,space,0.3722228000005998,1,2026-03-06_15h56.53.432
98,go,Go_stim_4,Barra vertical curta,Go_stim_4.png,3.0,space,0.38547899999866786,1,2026-03-06_15h56.55.113
99,go,Go_stim_3,Barra lateral para a direita,Go_stim_3.png,2.0,space,0.42034269999930984,1,2026-03-06_15h56.56.553
100,go,Go_stim_2,Barra lateral para a esquerda,Go_stim_2.png,1.0,space,0.380779099999927,1,2026-03-06_15h56.58.153
