Index;scene_encode;scene_size;object_encode;object_size;target_pos;condition_encode;lure;lure_size;lure_pos;ex_new;new_scene_size;jitter_ITI;thisN;thisTrialN;thisRepN;slider_example.response;slider_example.rt;key_ex_rate.keys;key_ex_rate.rt;key_ex_rate.duration;order_pairs;scene;condition_old;correct_key_old;correct_key_AFC;slider_cong.response;slider_cong.rt;key_rate.keys;key_rate.rt;key_rate.duration;ex_scene_old_new;key_ex_old.keys;key_ex_old.rt;key_ex_old.duration;exemplo_PAL.thisRepN;exemplo_PAL.thisTrialN;exemplo_PAL.thisN;exemplo_PAL.thisIndex;trial_encode.thisRepN;trial_encode.thisTrialN;trial_encode.thisN;trial_encode.thisIndex;trial_ex_old.thisRepN;trial_ex_old.thisTrialN;trial_ex_old.thisN;trial_ex_old.thisIndex;trial_item.thisRepN;trial_item.thisTrialN;trial_item.thisN;trial_item.thisIndex;thisRow.t;notes;Welcome.started;text_hi.started;key_welcome.started;Welcome.stopped;key_welcome.keys;key_welcome.rt;key_welcome.duration;Explanation_PAL.started;text_Explain_PAL.started;key_explain_PAL.started;Explanation_PAL.stopped;key_explain_PAL.keys;key_explain_PAL.rt;key_explain_PAL.duration;Explain_Rating.started;text_explain_rate.started;key_explain_rate.started;Explain_Rating.stopped;key_explain_rate.keys;key_explain_rate.rt;key_explain_rate.duration;blank.started;image_blank.started;image_blank.stopped;cross_25.started;cross_25.stopped;blank.stopped;Example_PAL.started;image_ex_scene.started;image_ex_object.started;key_ex_rate.started;slider_example.started;text_example.started;Example_PAL.stopped;exemplo_PAL.slider_example.response;exemplo_PAL.slider_example.rt;exemplo_PAL.key_ex_rate.keys;exemplo_PAL.key_ex_rate.rt;exemplo_PAL.key_ex_rate.duration;Start_PAL.started;text_end_ex.started;text_end_ex.stopped;text_start_PAL.started;key_start_PAL.started;Start_PAL.stopped;key_start_PAL.keys;key_start_PAL.rt;key_start_PAL.duration;Encode.started;image_scene_encode.started;image_object_encode.started;text_rating.started;slider_cong.started;key_rate.started;Encode.stopped;trial_encode.slider_cong.response;trial_encode.slider_cong.rt;trial_encode.key_rate.keys;trial_encode.key_rate.rt;trial_encode.key_rate.duration;Pause_1.started;text_pausa1.started;key_Start_Cog.started;Pause_1.stopped;key_Start_Cog.keys;key_Start_Cog.rt;key_Start_Cog.duration;Explanation_GoNo.started;text_explanation_GoNo.started;Explanation_GoNo.stopped;Cog_Oral.started;text_endGo.started;key_end_cog.started;text_endGo.stopped;text_call.started;Cog_Oral.stopped;key_end_cog.keys;key_end_cog.rt;key_end_cog.duration;Retomar.started;text_retomar.started;key_resp.started;Retomar.stopped;key_resp.keys;key_resp.rt;key_resp.duration;Explanation_Recall.started;text_explain_recall.started;key_continue.started;Explanation_Recall.stopped;key_continue.keys;key_continue.rt;key_continue.duration;Explain_Old_New.started;text_explain_old_new.started;key_explain_old.started;Explain_Old_New.stopped;key_explain_old.keys;key_explain_old.rt;key_explain_old.duration;Exemplo_old.started;image_exemplo_old_new.started;key_ex_old.started;text_ex_old.started;Exemplo_old.stopped;trial_ex_old.key_ex_old.keys;trial_ex_old.key_ex_old.rt;trial_ex_old.key_ex_old.duration;Start_Recall.started;text_start_recall.started;key_start_recall.started;Start_Recall.stopped;key_start_recall.keys;key_start_recall.rt;key_start_recall.duration;participant;session;date;expName;psychopyVersion;frameRate;expStart
;;;;;;;;;;;;;;;;;;;;;;;;;;;;;;;;;;;;;;;;;;;;;;;;;;;;;0.029797802000757656;0.03987828600111243;0.03987828600111243;1.1544795160007197;space;1.010018119999586;None;;;;;;;;;;;;;;;;;;;;;;;;;;;;;;;;;;;;;;;;;;;;;;;;;;;;;;;;;;;;;;;;;;;;;;;;;;;;;;;;;;;;;;;;;;;;;;;;;;;;;;;;;;;;;test_1002_4;1;2026-02-10_20h00.56.155;Full_PT;2024.2.1;60.01183253303972;2026-02-10 20h01.10.490417 +0000
;;;;;;;;;;;;;;;;;;;;;;;;;;;;;;;;;;;;;;;;;;;;;;;;;;;;;;;;;;;;1.154526705000535;1.172383727000124;3.1634527850001177;5.7014694700010295;space;2.5265617330005625;None;;;;;;;;;;;;;;;;;;;;;;;;;;;;;;;;;;;;;;;;;;;;;;;;;;;;;;;;;;;;;;;;;;;;;;;;;;;;;;;;;;;;;;;;;;;;;;;;;;;;;;test_1002_4;1;2026-02-10_20h00.56.155;Full_PT;2024.2.1;60.01183253303972;2026-02-10 20h01.10.490417 +0000
;;;;;;;;;;;;;;;;;;;;;;;;;;;;;;;;;;;;;;;;;;;;;;;;;;;;;;;;;;;;;;;;;;;5.7015193730003375;5.714263324000058;7.714652512000612;9.318760216001465;space;1.5912450529995112;None;;;;;;;;;;;;;;;;;;;;;;;;;;;;;;;;;;;;;;;;;;;;;;;;;;;;;;;;;;;;;;;;;;;;;;;;;;;;;;;;;;;;;;;;;;;;;;;test_1002_4;1;2026-02-10_20h00.56.155;Full_PT;2024.2.1;60.01183253303972;2026-02-10 20h01.10.490417 +0000
1;Scenes_Dataset/movie_theater_A.jpg;(600, 364);Objects_Dataset/movie_reels.jpg;(350, 268);(250, -200);congruent;Objects_Dataset/3d_glasses.jpg;(300, 300);(250, 200);Scenes_Dataset/building_entrance_A.jpg;(600, 400);2;0;0;0;None;None;c;3.879322961000071;None;;;;;;;;;;;;;;;0;0;0;0;;;;;;;;;;;;;9.334233132000008;;;;;;;;;;;;;;;;;;;;;;;9.327669651000178;9.334233132000008;11.348626029001025;11.581428680001409;11.850575202000982;11.82068745900142;11.837439671000539;11.850575202000982;11.850575202000982;11.850575202000982;14.362996181000199;14.362996181000199;15.734789695001382;None;None;c;3.879322961000071;None;;;;;;;;;;;;;;;;;;;;;;;;;;;;;;;;;;;;;;;;;;;;;;;;;;;;;;;;;;;;;;;;;;;;;;;;;;;;;test_1002_4;1;2026-02-10_20h00.56.155;Full_PT;2024.2.1;60.01183253303972;2026-02-10 20h01.10.490417 +0000
2;Scenes_Dataset/museum_A.jpg;(600, 337);Objects_Dataset/picnic_towel.jpg;(300, 300);(250, 200);incongruent;Objects_Dataset/fluorescent_bracelets.jpg;(300, 300);(250, -200);Scenes_Dataset/boat_interior_A.jpg;(600, 400);2.5;1;1;0;None;None;z;2.949167523000142;None;;;;;;;;;;;;;;;0;1;1;1;;;;;;;;;;;;;15.740518039001472;;;;;;;;;;;;;;;;;;;;;;;15.735034136001559;15.740518039001472;18.260853565001526;17.999540843000432;18.260853565001526;18.237653432001025;18.25298517200099;18.260853565001526;18.260853565001526;18.260853565001526;20.752278376001414;20.752278376001414;21.217947476001427;None;None;z;2.949167523000142;None;;;;;;;;;;;;;;;;;;;;;;;;;;;;;;;;;;;;;;;;;;;;;;;;;;;;;;;;;;;;;;;;;;;;;;;;;;;;;test_1002_4;1;2026-02-10_20h00.56.155;Full_PT;2024.2.1;60.01183253303972;2026-02-10 20h01.10.490417 +0000
;;;;;;;;;;;;;;;;;;;;;;;;;;;;;;;;;;;;;;;;;;;;;;;;;;;;;;;;;;;;;;;;;;;;;;;;;;;;;;;;;;;;;;;;;;;;21.21809318400119;21.224679881001066;22.733680896000806;22.733680896000806;22.733680896000806;25.838818824000555;space;3.100224833999164;None;;;;;;;;;;;;;;;;;;;;;;;;;;;;;;;;;;;;;;;;;;;;;;;;;;;;;;;;;;;;;;;;;;;;test_1002_4;1;2026-02-10_20h00.56.155;Full_PT;2024.2.1;60.01183253303972;2026-02-10 20h01.10.490417 +0000
;;(600, 375);Objects_Dataset/cactus.jpg;(300, 248);(300, -200);Congruent;Objects_Dataset/turban.jpg;(300, 300);(300, 200);;;2.65;0;0;0;;;;;;14;Scenes_Dataset/desert_A.jpg;old;left;down;None;None;c;3.435215813000468;None;;;;;;;;;0;0;0;13;;;;;;;;;25.905572883000787;;;;;;;;;;;;;;;;;;;;;;;25.89134449700032;25.905572883000787;28.577984712001125;28.101003849000335;28.35103403800167;28.55632382300064;;;;;;;;;;;;;;;;;;;;;;28.569292617001338;28.577984712001125;28.577984712001125;31.09479747000114;31.09479747000114;31.09479747000114;34.53674638100165;None;None;c;3.435215813000468;None;;;;;;;;;;;;;;;;;;;;;;;;;;;;;;;;;;;;;;;;;;;;;;;;;;;;;;;;test_1002_4;1;2026-02-10_20h00.56.155;Full_PT;2024.2.1;60.01183253303972;2026-02-10 20h01.10.490417 +0000
;;(600, 450);Objects_Dataset/stopwatch.jpg;(184, 250);(300, 200);Congruent;Objects_Dataset/athletics_barrier.jpg;(350, 280);(300, -200);;;3.1;1;1;0;;;;;;49;Scenes_Dataset/athletics_track_A.jpg;old;left;up;None;None;c;1.9328951200004667;None;;;;;;;;;0;1;1;48;;;;;;;;;34.542412998000145;;;;;;;;;;;;;;;;;;;;;;;34.537011126001744;34.542412998000145;37.66416650600149;36.80230438200124;37.05168075500114;37.64100221800072;;;;;;;;;;;;;;;;;;;;;;37.65612668200083;37.66416650600149;37.66416650600149;40.15699394100011;40.15699394100011;40.15699394100011;42.10858986600033;None;None;c;1.9328951200004667;None;;;;;;;;;;;;;;;;;;;;;;;;;;;;;;;;;;;;;;;;;;;;;;;;;;;;;;;;test_1002_4;1;2026-02-10_20h00.56.155;Full_PT;2024.2.1;60.01183253303972;2026-02-10 20h01.10.490417 +0000
;;(600, 408);Objects_Dataset/laundry_basket.jpg;(300, 225);(300, 200);Congruent;Objects_Dataset/laundry_detergent.jpg;(186, 264);(300, -200);;;2.35;2;2;0;;;;;;34;Scenes_Dataset/laundry_A.jpg;old;left;up;None;None;c;1.510852714000066;None;;;;;;;;;0;2;2;33;;;;;;;;;42.11402756300049;;;;;;;;;;;;;;;;;;;;;;;42.10889222200058;42.11402756300049;44.469566712001324;44.36946843400074;44.63021297300111;44.60837987800005;;;;;;;;;;;;;;;;;;;;;;44.622414359000686;44.63021297300111;44.63021297300111;47.12303838400112;47.12303838400112;47.12303838400112;48.63940564600125;None;None;c;1.510852714000066;None;;;;;;;;;;;;;;;;;;;;;;;;;;;;;;;;;;;;;;;;;;;;;;;;;;;;;;;;test_1002_4;1;2026-02-10_20h00.56.155;Full_PT;2024.2.1;60.01183253303972;2026-02-10 20h01.10.490417 +0000
;;(600, 450);Objects_Dataset/sandal.jpg;(300, 225);(300, -200);Incongruent;Objects_Dataset/parking_meter.jpg;(200, 300);(300, 200);;;3.2;3;3;0;;;;;;25;Scenes_Dataset/igloo_A.jpg;old;left;down;None;None;z;0.4993363879984827;None;;;;;;;;;0;3;3;24;;;;;;;;;48.6450950870003;;;;;;;;;;;;;;;;;;;;;;;48.63970420200167;48.6450950870003;51.86424973800058;50.903643692001424;51.15359638800146;51.842507294000825;;;;;;;;;;;;;;;;;;;;;;51.85627680000107;51.86424973800058;51.86424973800058;54.35853276400121;54.35853276400121;54.35853276400121;54.87690617100088;None;None;z;0.4993363879984827;None;;;;;;;;;;;;;;;;;;;;;;;;;;;;;;;;;;;;;;;;;;;;;;;;;;;;;;;;test_1002_4;1;2026-02-10_20h00.56.155;Full_PT;2024.2.1;60.01183253303972;2026-02-10 20h01.10.490417 +0000
;;(600, 415);Objects_Dataset/hairdryer.jpg;(250, 241);(300, -200);Incongruent;Objects_Dataset/hang_glider.jpg;(450, 275);(300, 200);;;2.85;4;4;0;;;;;;18;Scenes_Dataset/train_station_A.jpg;old;left;down;None;None;c;0.6324639869999373;None;;;;;;;;;0;4;4;17;;;;;;;;;54.882222709000416;;;;;;;;;;;;;;;;;;;;;;;54.877180744000725;54.882222709000416;57.749466795001354;57.13712443100121;57.3879808970014;57.72675529400112;;;;;;;;;;;;;;;;;;;;;;57.741980453;57.749466795001354;57.749466795001354;60.24142612600008;60.24142612600008;60.24142612600008;60.89379077000012;None;None;c;0.6324639869999373;None;;;;;;;;;;;;;;;;;;;;;;;;;;;;;;;;;;;;;;;;;;;;;;;;;;;;;;;;test_1002_4;1;2026-02-10_20h00.56.155;Full_PT;2024.2.1;60.01183253303972;2026-02-10 20h01.10.490417 +0000
;;(600, 450);Objects_Dataset/elevator_buttons_panel.jpg;(257, 300);(300, -200);Congruent;Objects_Dataset/surveillance_camera.jpg;(300, 204);(300, 200);;;2.75;5;5;0;;;;;;16;Scenes_Dataset/elevator_A.jpg;old;left;down;None;None;c;2.2113372910007456;None;;;;;;;;;0;5;5;15;;;;;;;;;60.89926221600035;;;;;;;;;;;;;;;;;;;;;;;60.89406602800045;60.89926221600035;63.66680107900174;63.155604231000325;63.40576334200159;63.644055108999964;;;;;;;;;;;;;;;;;;;;;;63.65890422300072;63.66680107900174;63.66680107900174;66.1585422950011;66.1585422950011;66.1585422950011;68.37535343400123;None;None;c;2.2113372910007456;None;;;;;;;;;;;;;;;;;;;;;;;;;;;;;;;;;;;;;;;;;;;;;;;;;;;;;;;;test_1002_4;1;2026-02-10_20h00.56.155;Full_PT;2024.2.1;60.01183253303972;2026-02-10 20h01.10.490417 +0000
;;(600, 400);Objects_Dataset/train_seats.jpg;(300, 300);(300, 200);Incongruent;Objects_Dataset/beach_bucket.jpg;(300, 300);(300, -200);;;2.75;6;6;0;;;;;;42;Scenes_Dataset/bakery_A.jpg;old;left;up;None;None;x;0.3092887319999136;None;;;;;;;;;0;6;6;41;;;;;;;;;68.38103573600165;;;;;;;;;;;;;;;;;;;;;;;68.3756159070017;68.38103573600165;71.14947784700053;70.639745597;70.88981186800083;71.12851084900103;;;;;;;;;;;;;;;;;;;;;;71.14303999799995;71.14947784700053;71.14947784700053;73.644610061001;73.644610061001;73.644610061001;73.95980131300166;None;None;x;0.3092887319999136;None;;;;;;;;;;;;;;;;;;;;;;;;;;;;;;;;;;;;;;;;;;;;;;;;;;;;;;;;test_1002_4;1;2026-02-10_20h00.56.155;Full_PT;2024.2.1;60.01183253303972;2026-02-10 20h01.10.490417 +0000
;;(600, 389);Objects_Dataset/car_key.jpg;(300, 125);(300, -200);Congruent;Objects_Dataset/car_freshener.jpg;(277, 300);(300, 200);;;2.1;7;7;0;;;;;;29;Scenes_Dataset/car_interior_A.jpg;old;left;down;None;None;c;1.3037071479993756;None;;;;;;;;;0;7;7;28;;;;;;;;;73.96539411600133;;;;;;;;;;;;;;;;;;;;;;;73.96007682800155;73.96539411600133;76.07376392700098;76.22381880100147;76.48257726200063;76.46240407300138;;;;;;;;;;;;;;;;;;;;;;76.47634071600078;76.48257726200063;76.48257726200063;78.97816462500123;78.97816462500123;78.97816462500123;80.2959790950008;None;None;c;1.3037071479993756;None;;;;;;;;;;;;;;;;;;;;;;;;;;;;;;;;;;;;;;;;;;;;;;;;;;;;;;;;test_1002_4;1;2026-02-10_20h00.56.155;Full_PT;2024.2.1;60.01183253303972;2026-02-10 20h01.10.490417 +0000
;;(600, 399);Objects_Dataset/belt.jpg;(200, 162);(300, 200);Incongruent;Objects_Dataset/watch.jpg;(300, 273);(300, -200);;;2.45;8;8;0;;;;;;36;Scenes_Dataset/toy_store_A.jpg;old;left;up;None;None;z;0.5451016389997676;None;;;;;;;;;0;8;8;35;;;;;;;;;80.30133379600011;;;;;;;;;;;;;;;;;;;;;;;80.29625597200175;80.30133379600011;82.75846615900082;82.55858822900154;82.81941134600129;82.79759720700167;;;;;;;;;;;;;;;;;;;;;;82.81180306700116;82.81941134600129;82.81941134600129;85.31280762900133;85.31280762900133;85.31280762900133;85.8616630810011;None;None;z;0.5451016389997676;None;;;;;;;;;;;;;;;;;;;;;;;;;;;;;;;;;;;;;;;;;;;;;;;;;;;;;;;;test_1002_4;1;2026-02-10_20h00.56.155;Full_PT;2024.2.1;60.01183253303972;2026-02-10 20h01.10.490417 +0000
;;(600, 420);Objects_Dataset/cork_showcase.jpg;(300, 255);(300, -200);Incongruent;Objects_Dataset/suit_vest.jpg;(194, 300);(300, 200);;;2;9;9;0;;;;;;27;Scenes_Dataset/island_A.jpg;old;left;down;None;None;x;0.5325789889993757;None;;;;;;;;;0;9;9;26;;;;;;;;;85.86741859100039;;;;;;;;;;;;;;;;;;;;;;;85.86193581900079;85.86741859100039;87.87560349600062;88.12527934600075;88.38236875800067;88.3623180930008;;;;;;;;;;;;;;;;;;;;;;88.37521328799994;88.38236875800067;88.38236875800067;90.87732038700051;90.87732038700051;90.87732038700051;91.41216095300115;None;None;x;0.5325789889993757;None;;;;;;;;;;;;;;;;;;;;;;;;;;;;;;;;;;;;;;;;;;;;;;;;;;;;;;;;test_1002_4;1;2026-02-10_20h00.56.155;Full_PT;2024.2.1;60.01183253303972;2026-02-10 20h01.10.490417 +0000
;;(600, 400);Objects_Dataset/dentist_mirror.jpg;(300, 300);(300, -200);Congruent;Objects_Dataset/surgical_mask.jpg;(300, 300);(300, 200);;;2.6;10;10;0;;;;;;13;Scenes_Dataset/dentist_A.jpg;old;left;down;None;None;c;3.335283315998822;None;;;;;;;;;0;10;10;12;;;;;;;;;91.41784067900153;;;;;;;;;;;;;;;;;;;;;;;91.41241997400175;91.41784067900153;94.03520612700049;93.67725217500083;93.92697512300037;94.01531788100147;;;;;;;;;;;;;;;;;;;;;;94.0272870560002;94.03520612700049;94.03520612700049;96.53060570000162;96.53060570000162;96.53060570000162;99.88122487100009;None;None;c;3.335283315998822;None;;;;;;;;;;;;;;;;;;;;;;;;;;;;;;;;;;;;;;;;;;;;;;;;;;;;;;;;test_1002_4;1;2026-02-10_20h00.56.155;Full_PT;2024.2.1;60.01183253303972;2026-02-10 20h01.10.490417 +0000
;;(600, 450);Objects_Dataset/soap.jpg;(300, 191);(300, 200);Congruent;Objects_Dataset/toothbrush.jpg;(300, 215);(300, -200);;;2.35;11;11;0;;;;;;60;Scenes_Dataset/toilet_A.jpg;old;left;up;None;None;c;0.9504505889999564;None;;;;;;;;;0;11;11;59;;;;;;;;;99.88552264300051;;;;;;;;;;;;;;;;;;;;;;;99.88148815000022;99.88552264300051;102.24509325700092;102.14508852900144;102.40998703100013;102.38373242000125;;;;;;;;;;;;;;;;;;;;;;102.40190858800088;102.40998703100013;102.40998703100013;104.89942884200173;104.89942884200173;104.89942884200173;105.86729657600154;None;None;c;0.9504505889999564;None;;;;;;;;;;;;;;;;;;;;;;;;;;;;;;;;;;;;;;;;;;;;;;;;;;;;;;;;test_1002_4;1;2026-02-10_20h00.56.155;Full_PT;2024.2.1;60.01183253303972;2026-02-10 20h01.10.490417 +0000
;;(600, 370);Objects_Dataset/scissors.jpg;(300, 145);(300, 200);Congruent;Objects_Dataset/stapler.jpg;(250, 178);(300, -200);;;2.8;12;12;0;;;;;;43;Scenes_Dataset/stationary_store_A.jpg;old;left;up;None;None;c;0.4023887269995612;None;;;;;;;;;0;12;12;42;;;;;;;;;105.87279833499997;;;;;;;;;;;;;;;;;;;;;;;105.86758012800055;105.87279833499997;108.69362348499999;108.12886062500002;108.37887368500014;108.6676566340011;;;;;;;;;;;;;;;;;;;;;;108.68375518400171;108.69362348499999;108.69362348499999;111.18349412099997;111.18349412099997;111.18349412099997;111.60166124500029;None;None;c;0.4023887269995612;None;;;;;;;;;;;;;;;;;;;;;;;;;;;;;;;;;;;;;;;;;;;;;;;;;;;;;;;;test_1002_4;1;2026-02-10_20h00.56.155;Full_PT;2024.2.1;60.01183253303972;2026-02-10 20h01.10.490417 +0000
;;(600, 446);Objects_Dataset/saline.jpg;(300, 225);(300, 200);Incongruent;Objects_Dataset/soap_dispenser.jpg;(300, 300);(300, -200);;;2.2;13;13;0;;;;;;31;Scenes_Dataset/garden_A.jpg;old;left;up;None;None;z;0.37806153100063966;None;;;;;;;;;0;13;13;30;;;;;;;;;111.60713979900174;;;;;;;;;;;;;;;;;;;;;;;111.60193376800089;111.60713979900174;113.81289683900104;113.86354007800037;114.12498295700061;114.10154832300032;;;;;;;;;;;;;;;;;;;;;;114.11712118600008;114.12498295700061;114.12498295700061;116.61584522200064;116.61584522200064;116.61584522200064;116.9994650030003;None;None;z;0.37806153100063966;None;;;;;;;;;;;;;;;;;;;;;;;;;;;;;;;;;;;;;;;;;;;;;;;;;;;;;;;;test_1002_4;1;2026-02-10_20h00.56.155;Full_PT;2024.2.1;60.01183253303972;2026-02-10 20h01.10.490417 +0000
;;(600, 379);Objects_Dataset/swimming_arm_bands.jpg;(300, 300);(300, 200);Incongruent;Objects_Dataset/thimble.jpg;(124, 150);(300, -200);;;2.5;14;14;0;;;;;;37;Scenes_Dataset/mountain_A.jpg;old;left;up;None;None;z;3.9697043110008963;None;;;;;;;;;0;14;14;36;;;;;;;;;117.00509280400001;;;;;;;;;;;;;;;;;;;;;;;116.99975775800158;117.00509280400001;119.53112119600155;119.2642616940011;119.53112119600155;119.50235317900115;;;;;;;;;;;;;;;;;;;;;;119.51896424400002;119.53112119600155;119.53112119600155;122.01618110400159;122.01618110400159;122.01618110400159;126.00281589600127;None;None;z;3.9697043110008963;None;;;;;;;;;;;;;;;;;;;;;;;;;;;;;;;;;;;;;;;;;;;;;;;;;;;;;;;;test_1002_4;1;2026-02-10_20h00.56.155;Full_PT;2024.2.1;60.01183253303972;2026-02-10 20h01.10.490417 +0000
;;(600, 337);Objects_Dataset/wine_cork.jpg;(250, 163);(300, 200);Incongruent;Objects_Dataset/bible.jpg;(300, 248);(300, -200);;;3;15;15;0;;;;;;47;Scenes_Dataset/playground_A.jpg;old;left;up;None;None;z;0.2753353119987878;None;;;;;;;;;0;15;15;46;;;;;;;;;126.00823509000111;;;;;;;;;;;;;;;;;;;;;;;126.00307753000016;126.00823509000111;129.02394540000023;128.265353959001;128.5156321910017;129.0030817120005;;;;;;;;;;;;;;;;;;;;;;129.0163263430004;129.02394540000023;129.02394540000023;131.5187281310009;131.5187281310009;131.5187281310009;131.80055208000158;None;None;z;0.2753353119987878;None;;;;;;;;;;;;;;;;;;;;;;;;;;;;;;;;;;;;;;;;;;;;;;;;;;;;;;;;test_1002_4;1;2026-02-10_20h00.56.155;Full_PT;2024.2.1;60.01183253303972;2026-02-10 20h01.10.490417 +0000
;;(600, 450);Objects_Dataset/swiss_army_knife.jpg;(300, 214);(300, 200);Incongruent;Objects_Dataset/padlock.jpg;(300, 153);(300, -200);;;2.2;16;16;0;;;;;;57;Scenes_Dataset/waiting_room_A.jpg;old;left;up;None;None;c;0.3989904600002774;None;;;;;;;;;0;16;16;56;;;;;;;;;131.80617535900092;;;;;;;;;;;;;;;;;;;;;;;131.80081483899994;131.80617535900092;134.01642411900139;134.06624996200117;134.32845001400165;134.30464455700167;;;;;;;;;;;;;;;;;;;;;;134.32040465200043;134.32845001400165;134.32845001400165;136.81904658700114;136.81904658700114;136.81904658700114;137.2244382000008;None;None;c;0.3989904600002774;None;;;;;;;;;;;;;;;;;;;;;;;;;;;;;;;;;;;;;;;;;;;;;;;;;;;;;;;;test_1002_4;1;2026-02-10_20h00.56.155;Full_PT;2024.2.1;60.01183253303972;2026-02-10 20h01.10.490417 +0000
;;(600, 338);Objects_Dataset/suitcase.jpg;(226, 350);(300, -200);Congruent;Objects_Dataset/luggage_cart.jpg;(232, 300);(300, 200);;;2;17;17;0;;;;;;1;Scenes_Dataset/airport_A.jpg;old;left;down;None;None;c;0.36389615400003095;None;;;;;;;;;0;17;17;0;;;;;;;;;137.23258303200055;;;;;;;;;;;;;;;;;;;;;;;137.22469712600105;137.23258303200055;139.2335522170015;139.48353897000015;139.7435109550006;139.7224612960017;;;;;;;;;;;;;;;;;;;;;;139.73607193099997;139.7435109550006;139.7435109550006;142.23798714500117;142.23798714500117;142.23798714500117;142.6221578070017;None;None;c;0.36389615400003095;None;;;;;;;;;;;;;;;;;;;;;;;;;;;;;;;;;;;;;;;;;;;;;;;;;;;;;;;;test_1002_4;1;2026-02-10_20h00.56.155;Full_PT;2024.2.1;60.01183253303972;2026-02-10 20h01.10.490417 +0000
;;(600, 436);Objects_Dataset/remote_control.jpg;(300, 293);(300, 200);Congruent;Objects_Dataset/dvd_player.jpg;(350, 144);(300, -200);;;2.1;18;18;0;;;;;;55;Scenes_Dataset/living_room_A.jpg;old;left;up;None;None;c;8.37117619700075;None;;;;;;;;;0;18;18;54;;;;;;;;;142.6275745640014;;;;;;;;;;;;;;;;;;;;;;;142.62243630600096;142.6275745640014;144.73465941400173;144.88413569600016;145.14885146000051;145.1230966890016;;;;;;;;;;;;;;;;;;;;;;145.13911383100094;145.14885146000051;145.14885146000051;147.63870526200117;147.63870526200117;147.63870526200117;156.0214170170002;None;None;c;8.37117619700075;None;;;;;;;;;;;;;;;;;;;;;;;;;;;;;;;;;;;;;;;;;;;;;;;;;;;;;;;;test_1002_4;1;2026-02-10_20h00.56.155;Full_PT;2024.2.1;60.01183253303972;2026-02-10 20h01.10.490417 +0000
;;(600, 398);Objects_Dataset/ring.jpg;(128, 150);(300, 200);Congruent;Objects_Dataset/jewelry_box.jpg;(267, 300);(300, -200);;;2.7;19;19;0;;;;;;41;Scenes_Dataset/jewelery_A.jpg;old;left;up;None;None;c;2.8175794710004993;None;;;;;;;;;0;19;19;40;;;;;;;;;156.02581418800037;;;;;;;;;;;;;;;;;;;;;;;156.02167873899998;156.02581418800037;158.74645101700116;158.2860812760009;158.5358942670009;158.72479792500053;;;;;;;;;;;;;;;;;;;;;;158.7387186550004;158.74645101700116;158.74645101700116;161.24030572000083;161.24030572000083;161.24030572000083;164.07381374500073;None;None;c;2.8175794710004993;None;;;;;;;;;;;;;;;;;;;;;;;;;;;;;;;;;;;;;;;;;;;;;;;;;;;;;;;;test_1002_4;1;2026-02-10_20h00.56.155;Full_PT;2024.2.1;60.01183253303972;2026-02-10 20h01.10.490417 +0000
;;(600, 400);Objects_Dataset/soccer_ball.jpg;(200, 194);(300, -200);Congruent;Objects_Dataset/football_boots.jpg;(300, 300);(300, 200);;;2.9;20;20;0;;;;;;19;Scenes_Dataset/soccer_stadium_A.jpg;old;left;down;None;None;c;0.3819574539993482;None;;;;;;;;;0;20;20;18;;;;;;;;;164.07830976100013;;;;;;;;;;;;;;;;;;;;;;;164.0740786760016;164.07830976100013;166.9993411860014;166.33719844900043;166.58779677100028;166.9756210630003;;;;;;;;;;;;;;;;;;;;;;166.99204108400045;166.9993411860014;166.9993411860014;169.4919293510011;169.4919293510011;169.4919293510011;169.8912446610011;None;None;c;0.3819574539993482;None;;;;;;;;;;;;;;;;;;;;;;;;;;;;;;;;;;;;;;;;;;;;;;;;;;;;;;;;test_1002_4;1;2026-02-10_20h00.56.155;Full_PT;2024.2.1;60.01183253303972;2026-02-10 20h01.10.490417 +0000
;;(600, 371);Objects_Dataset/latex_gloves.jpg;(300, 300);(300, 200);Incongruent;Objects_Dataset/gauze_pad.jpg;(300, 206);(300, -200);;;2.25;21;21;0;;;;;;58;Scenes_Dataset/games_room_A.jpg;old;left;up;None;None;z;12.372727486001168;None;;;;;;;;;0;21;21;57;;;;;;;;;169.89666854000097;;;;;;;;;;;;;;;;;;;;;;;169.89150611200057;169.89666854000097;172.15480408500116;172.15480408500116;172.42022714000086;172.394171199001;;;;;;;;;;;;;;;;;;;;;;172.41245214900118;172.42022714000086;172.42022714000086;174.90916476100028;174.90916476100028;174.90916476100028;187.2885750760015;None;None;z;12.372727486001168;None;;;;;;;;;;;;;;;;;;;;;;;;;;;;;;;;;;;;;;;;;;;;;;;;;;;;;;;;test_1002_4;1;2026-02-10_20h00.56.155;Full_PT;2024.2.1;60.01183253303972;2026-02-10 20h01.10.490417 +0000
;;(600, 421);Objects_Dataset/clown_nose.jpg;(300, 142);(300, -200);Congruent;Objects_Dataset/unicycle.jpg;(159, 300);(300, 200);;;2.35;22;22;0;;;;;;8;Scenes_Dataset/circus_A.jpg;old;left;down;None;None;c;18.595074672999544;None;;;;;;;;;0;22;22;7;;;;;;;;;187.29407375200026;;;;;;;;;;;;;;;;;;;;;;;187.28884238200044;187.29407375200026;189.6573616630012;189.54053388400098;189.80166013400049;189.77963722800087;;;;;;;;;;;;;;;;;;;;;;189.79401263600084;189.80166013400049;189.80166013400049;192.29494626500127;192.29494626500127;192.29494626500127;210.89609792400006;None;None;c;18.595074672999544;None;;;;;;;;;;;;;;;;;;;;;;;;;;;;;;;;;;;;;;;;;;;;;;;;;;;;;;;;test_1002_4;1;2026-02-10_20h00.56.155;Full_PT;2024.2.1;60.01183253303972;2026-02-10 20h01.10.490417 +0000
;;(600, 402);Objects_Dataset/hotel_bell.jpg;(171, 200);(300, 200);Incongruent;Objects_Dataset/door_mat.jpg;(300, 300);(300, -200);;;2.85;23;23;0;;;;;;44;Scenes_Dataset/campsite_A.jpg;old;left;up;None;None;z;0.2408203989998583;None;;;;;;;;;0;23;23;43;;;;;;;;;210.9018671820013;;;;;;;;;;;;;;;;;;;;;;;210.89635976099999;210.9018671820013;213.771763697001;213.16131796900117;213.41092700700028;213.74973577400124;;;;;;;;;;;;;;;;;;;;;;213.7640954160015;213.771763697001;213.771763697001;216.26522024100086;216.26522024100086;216.26522024100086;216.51354466300108;None;None;z;0.2408203989998583;None;;;;;;;;;;;;;;;;;;;;;;;;;;;;;;;;;;;;;;;;;;;;;;;;;;;;;;;;test_1002_4;1;2026-02-10_20h00.56.155;Full_PT;2024.2.1;60.01183253303972;2026-02-10 20h01.10.490417 +0000
;;(600, 375);Objects_Dataset/poker_chips.jpg;(350, 119);(300, -200);Incongruent;Objects_Dataset/bathrobe.jpg;(350, 350);(300, 200);;;3.05;24;24;0;;;;;;22;Scenes_Dataset/forest_A.jpg;old;left;down;None;None;z;1.271339356999306;None;;;;;;;;;0;24;24;21;;;;;;;;;216.5191732610001;;;;;;;;;;;;;;;;;;;;;;;216.51380906900158;216.5191732610001;219.58359642600044;218.7785368950008;219.02833709700099;219.56447159000163;;;;;;;;;;;;;;;;;;;;;;219.57644638400052;219.58359642600044;219.58359642600044;222.082522445;222.082522445;222.082522445;223.3634474520004;None;None;z;1.271339356999306;None;;;;;;;;;;;;;;;;;;;;;;;;;;;;;;;;;;;;;;;;;;;;;;;;;;;;;;;;test_1002_4;1;2026-02-10_20h00.56.155;Full_PT;2024.2.1;60.01183253303972;2026-02-10 20h01.10.490417 +0000
;;(600, 461);Objects_Dataset/pills.jpg;(216, 250);(300, -200);Congruent;Objects_Dataset/thermometer.jpg;(300, 199);(300, 200);;;3;25;25;0;;;;;;21;Scenes_Dataset/pharmacy_A.jpg;old;left;down;None;None;c;26.26353922599992;None;;;;;;;;;0;25;25;20;;;;;;;;;223.36915679600133;;;;;;;;;;;;;;;;;;;;;;;223.36370653700033;223.36915679600133;226.39425300900075;225.61258056800034;225.86248157700174;226.36779008800113;;;;;;;;;;;;;;;;;;;;;;226.3865152970011;226.39425300900075;226.39425300900075;228.88248385000043;228.88248385000043;228.88248385000043;255.15418006000073;None;None;c;26.26353922599992;None;;;;;;;;;;;;;;;;;;;;;;;;;;;;;;;;;;;;;;;;;;;;;;;;;;;;;;;;test_1002_4;1;2026-02-10_20h00.56.155;Full_PT;2024.2.1;60.01183253303972;2026-02-10 20h01.10.490417 +0000
;;(600, 450);Objects_Dataset/torch.jpg;(210, 300);(300, -200);Incongruent;Objects_Dataset/semaphore.jpg;(199, 300);(300, 200);;;2.05;26;26;0;;;;;;2;Scenes_Dataset/storage_A.jpg;old;left;down;None;None;z;2.591087210999831;None;;;;;;;;;0;26;26;1;;;;;;;;;255.16663358500045;;;;;;;;;;;;;;;;;;;;;;;255.15444605500124;255.16663358500045;257.21711617300025;257.4178043860011;257.67824758000097;257.6557253580013;;;;;;;;;;;;;;;;;;;;;;257.670417845;257.67824758000097;257.67824758000097;260.1709588950016;260.1709588950016;260.1709588950016;262.7698220600014;None;None;z;2.591087210999831;None;;;;;;;;;;;;;;;;;;;;;;;;;;;;;;;;;;;;;;;;;;;;;;;;;;;;;;;;test_1002_4;1;2026-02-10_20h00.56.155;Full_PT;2024.2.1;60.01183253303972;2026-02-10 20h01.10.490417 +0000
;;(600, 447);Objects_Dataset/crown.jpg;(300, 249);(300, -200);Congruent;Objects_Dataset/throne.jpg;(234, 350);(300, 200);;;2.15;27;27;0;;;;;;30;Scenes_Dataset/palace_interior_A.jpg;old;left;down;None;None;c;0.42489993999879516;None;;;;;;;;;0;27;27;29;;;;;;;;;262.7755167640007;;;;;;;;;;;;;;;;;;;;;;;262.77008582000053;262.7755167640007;264.93557649500144;265.0349598240009;265.29854121100107;265.27357272100016;;;;;;;;;;;;;;;;;;;;;;265.2910269560016;265.29854121100107;265.29854121100107;267.78497605900156;267.78497605900156;267.78497605900156;268.2239339710013;None;None;c;0.42489993999879516;None;;;;;;;;;;;;;;;;;;;;;;;;;;;;;;;;;;;;;;;;;;;;;;;;;;;;;;;;test_1002_4;1;2026-02-10_20h00.56.155;Full_PT;2024.2.1;60.01183253303972;2026-02-10 20h01.10.490417 +0000
;;(600, 400);Objects_Dataset/plate.jpg;(300, 117);(300, 200);Congruent;Objects_Dataset/fork.jpg;(300, 180);(300, -200);;;2;28;28;0;;;;;;53;Scenes_Dataset/restaurant_A.jpg;old;left;up;None;None;c;0.9470783269989624;None;;;;;;;;;0;28;28;52;;;;;;;;;268.2344526680008;;;;;;;;;;;;;;;;;;;;;;;268.22419375000027;268.2344526680008;270.23594028000116;270.4862914210007;270.7460730370003;270.7241742030001;;;;;;;;;;;;;;;;;;;;;;270.73839328100075;270.7460730370003;270.7460730370003;273.238811792;273.238811792;273.238811792;274.1891526670006;None;None;c;0.9470783269989624;None;;;;;;;;;;;;;;;;;;;;;;;;;;;;;;;;;;;;;;;;;;;;;;;;;;;;;;;;test_1002_4;1;2026-02-10_20h00.56.155;Full_PT;2024.2.1;60.01183253303972;2026-02-10 20h01.10.490417 +0000
;;(600, 400);Objects_Dataset/pipette.jpg;(300, 221);(300, 200);Congruent;Objects_Dataset/microscope.jpg;(250, 300);(300, -200);;;2.3;29;29;0;;;;;;33;Scenes_Dataset/laboratory_A.jpg;old;left;up;None;None;x;1.9878723059991898;None;;;;;;;;;0;29;29;32;;;;;;;;;274.1948941390001;;;;;;;;;;;;;;;;;;;;;;;274.1894284000009;274.1948941390001;276.5033071460002;276.453663925;276.71074215700173;276.6914960180002;;;;;;;;;;;;;;;;;;;;;;276.70509251300064;276.71074215700173;276.71074215700173;279.2060204980007;279.2060204980007;279.2060204980007;281.2018388960005;None;None;x;1.9878723059991898;None;;;;;;;;;;;;;;;;;;;;;;;;;;;;;;;;;;;;;;;;;;;;;;;;;;;;;;;;test_1002_4;1;2026-02-10_20h00.56.155;Full_PT;2024.2.1;60.01183253303972;2026-02-10 20h01.10.490417 +0000
;;(600, 400);Objects_Dataset/trash_can.jpg;(225, 300);(300, 200);Incongruent;Objects_Dataset/plastic_bag.jpg;(350, 197);(300, -200);;;2.05;30;30;0;;;;;;54;Scenes_Dataset/closet_A.jpg;old;left;up;None;None;z;3.6651676040000893;None;;;;;;;;;0;30;30;53;;;;;;;;;281.20730606600046;;;;;;;;;;;;;;;;;;;;;;;281.20215627200014;281.20730606600046;283.27193209800134;283.4552620250015;283.7107424300011;283.693036005001;;;;;;;;;;;;;;;;;;;;;;283.70514521300174;283.7107424300011;283.7107424300011;286.2087179350001;286.2087179350001;286.2087179350001;289.89486105500146;None;None;z;3.6651676040000893;None;;;;;;;;;;;;;;;;;;;;;;;;;;;;;;;;;;;;;;;;;;;;;;;;;;;;;;;;test_1002_4;1;2026-02-10_20h00.56.155;Full_PT;2024.2.1;60.01183253303972;2026-02-10 20h01.10.490417 +0000
;;(600, 480);Objects_Dataset/chalice.jpg;(192, 300);(300, -200);Incongruent;Objects_Dataset/paint_roller.jpg;(262, 300);(300, 200);;;2.05;31;31;0;;;;;;28;Scenes_Dataset/airplane_interior_A.jpg;old;left;down;None;None;z;5.628969684999902;None;;;;;;;;;0;31;31;27;;;;;;;;;289.9003248330009;;;;;;;;;;;;;;;;;;;;;;;289.8951374460012;289.9003248330009;291.956205587001;292.15616928000054;292.4173880340004;292.39418081700023;;;;;;;;;;;;;;;;;;;;;;292.4094930760002;292.4173880340004;292.4173880340004;294.9089126550007;294.9089126550007;294.9089126550007;300.5430706700008;None;None;z;5.628969684999902;None;;;;;;;;;;;;;;;;;;;;;;;;;;;;;;;;;;;;;;;;;;;;;;;;;;;;;;;;test_1002_4;1;2026-02-10_20h00.56.155;Full_PT;2024.2.1;60.01183253303972;2026-02-10 20h01.10.490417 +0000
;;(600, 440);Objects_Dataset/nail.jpg;(300, 272);(300, 200);Congruent;Objects_Dataset/brick.jpg;(300, 224);(300, -200);;;2.6;32;32;0;;;;;;39;Scenes_Dataset/construction_A.jpg;old;left;up;None;None;c;0.8697732930013444;None;;;;;;;;;0;32;32;38;;;;;;;;;300.5487610430009;;;;;;;;;;;;;;;;;;;;;;;300.5433431500005;300.5487610430009;303.16705898500004;302.80781504600054;303.05743960200016;303.1457290850012;;;;;;;;;;;;;;;;;;;;;;303.15892135000104;303.16705898500004;303.16705898500004;305.6601106390008;305.6601106390008;305.6601106390008;306.5460698100014;None;None;c;0.8697732930013444;None;;;;;;;;;;;;;;;;;;;;;;;;;;;;;;;;;;;;;;;;;;;;;;;;;;;;;;;;test_1002_4;1;2026-02-10_20h00.56.155;Full_PT;2024.2.1;60.01183253303972;2026-02-10 20h01.10.490417 +0000
;;(600, 450);Objects_Dataset/horseshoe.jpg;(300, 296);(300, -200);Congruent;Objects_Dataset/saddle.jpg;(300, 199);(300, 200);;;2.8;33;33;0;;;;;;17;Scenes_Dataset/stable_A.jpg;old;left;down;None;None;c;0.41951128999971843;None;;;;;;;;;0;33;33;16;;;;;;;;;306.55155489500066;;;;;;;;;;;;;;;;;;;;;;;306.5463456330017;306.55155489500066;309.3707807160008;308.8078046340015;309.0580519970008;309.3470168740005;;;;;;;;;;;;;;;;;;;;;;309.3632020420009;309.3707807160008;309.3707807160008;311.8623632350009;311.8623632350009;311.8623632350009;312.29715860500073;None;None;c;0.41951128999971843;None;;;;;;;;;;;;;;;;;;;;;;;;;;;;;;;;;;;;;;;;;;;;;;;;;;;;;;;;test_1002_4;1;2026-02-10_20h00.56.155;Full_PT;2024.2.1;60.01183253303972;2026-02-10 20h01.10.490417 +0000
;;(600, 375);Objects_Dataset/defibrillator_paddles.jpg;(350, 223);(300, -200);Incongruent;Objects_Dataset/pedestal_column.jpg;(155, 300);(300, 200);;;2.2;34;34;0;;;;;;5;Scenes_Dataset/tree_house.jpg;old;left;down;None;None;z;3.272206947000086;None;;;;;;;;;0;34;34;4;;;;;;;;;312.3023740080007;;;;;;;;;;;;;;;;;;;;;;;312.29743447500005;312.3023740080007;314.50866016300097;314.5586738480015;314.81471137100016;314.79494975000125;;;;;;;;;;;;;;;;;;;;;;314.8077006960011;314.81471137100016;314.81471137100016;317.3136701940002;317.3136701940002;317.3136701940002;320.59661825200055;None;None;z;3.272206947000086;None;;;;;;;;;;;;;;;;;;;;;;;;;;;;;;;;;;;;;;;;;;;;;;;;;;;;;;;;test_1002_4;1;2026-02-10_20h00.56.155;Full_PT;2024.2.1;60.01183253303972;2026-02-10 20h01.10.490417 +0000
;;(600, 424);Objects_Dataset/mortar.jpg;(273, 300);(300, 200);Incongruent;Objects_Dataset/light_switch.jpg;(250, 250);(300, -200);;;2.4;35;35;0;;;;;;35;Scenes_Dataset/trash_A.jpg;old;left;up;None;None;z;3.5882519820006564;None;;;;;;;;;0;35;35;34;;;;;;;;;320.6031653070004;;;;;;;;;;;;;;;;;;;;;;;320.59687220700107;320.6031653070004;323.0101968530016;322.86014164300104;323.1226604750009;323.09868753000046;;;;;;;;;;;;;;;;;;;;;;323.11483759800103;323.1226604750009;323.1226604750009;325.6136287340014;325.6136287340014;325.6136287340014;329.2161127870004;None;None;z;3.5882519820006564;None;;;;;;;;;;;;;;;;;;;;;;;;;;;;;;;;;;;;;;;;;;;;;;;;;;;;;;;;test_1002_4;1;2026-02-10_20h00.56.155;Full_PT;2024.2.1;60.01183253303972;2026-02-10 20h01.10.490417 +0000
;;(600, 338);Objects_Dataset/watercolors.jpg;(300, 231);(300, 200);Congruent;Objects_Dataset/plasticine.jpg;(250, 167);(300, -200);;;2.25;36;36;0;;;;;;32;Scenes_Dataset/kindergarten_A.jpg;old;left;up;None;None;c;1.0589594330012915;None;;;;;;;;;0;36;36;31;;;;;;;;;329.2215562630008;;;;;;;;;;;;;;;;;;;;;;;329.21639138200044;329.2215562630008;331.47800162400017;331.47800162400017;331.7399563630006;331.71655717500107;;;;;;;;;;;;;;;;;;;;;;331.7322738060011;331.7399563630006;331.7399563630006;334.23109165700043;334.23109165700043;334.23109165700043;335.2976371870009;None;None;c;1.0589594330012915;None;;;;;;;;;;;;;;;;;;;;;;;;;;;;;;;;;;;;;;;;;;;;;;;;;;;;;;;;test_1002_4;1;2026-02-10_20h00.56.155;Full_PT;2024.2.1;60.01183253303972;2026-02-10 20h01.10.490417 +0000
;;(600, 524);Objects_Dataset/tin.jpg;(233, 350);(300, 200);Incongruent;Objects_Dataset/lighter.jpg;(300, 197);(300, -200);;;3.25;37;37;0;;;;;;52;Scenes_Dataset/childrens_room_A.jpg;old;left;up;None;None;z;1.0004266920004738;None;;;;;;;;;0;37;37;51;;;;;;;;;335.30326037100167;;;;;;;;;;;;;;;;;;;;;;;335.29790750600114;335.30326037100167;338.57680580600027;337.5621790110017;337.81649349000145;338.55090697700143;;;;;;;;;;;;;;;;;;;;;;338.5678872100016;338.57680580600027;338.57680580600027;341.06545567600006;341.06545567600006;341.06545567600006;342.0846777580009;None;None;z;1.0004266920004738;None;;;;;;;;;;;;;;;;;;;;;;;;;;;;;;;;;;;;;;;;;;;;;;;;;;;;;;;;test_1002_4;1;2026-02-10_20h00.56.155;Full_PT;2024.2.1;60.01183253303972;2026-02-10 20h01.10.490417 +0000
;;(600, 399);Objects_Dataset/mannequin.jpg;(340, 400);(300, -200);Incongruent;Objects_Dataset/ballet_shoe.jpg;(300, 300);(300, 200);;;3.15;38;38;0;;;;;;24;Scenes_Dataset/vegetable_garden_A.jpg;old;left;down;None;None;c;0.8279737270004262;None;;;;;;;;;0;38;38;23;;;;;;;;;342.09007480200125;;;;;;;;;;;;;;;;;;;;;;;342.08495349400073;342.09007480200125;345.2599134560005;344.34660802000144;344.5964529210014;345.23502244300107;;;;;;;;;;;;;;;;;;;;;;345.2520311970002;345.2599134560005;345.2599134560005;347.7499059240017;347.7499059240017;347.7499059240017;348.60067817900017;None;None;c;0.8279737270004262;None;;;;;;;;;;;;;;;;;;;;;;;;;;;;;;;;;;;;;;;;;;;;;;;;;;;;;;;;test_1002_4;1;2026-02-10_20h00.56.155;Full_PT;2024.2.1;60.01183253303972;2026-02-10 20h01.10.490417 +0000
;;(600, 400);Objects_Dataset/miners_cap.jpg;(300, 300);(300, -200);Incongruent;Objects_Dataset/juggling_balls.jpg;(350, 197);(300, 200);;;2.45;39;39;0;;;;;;10;Scenes_Dataset/clinic_A.jpg;old;left;down;None;None;z;1.3920824889992218;None;;;;;;;;;0;39;39;9;;;;;;;;;348.60535489500035;;;;;;;;;;;;;;;;;;;;;;;348.6009595710002;348.60535489500035;351.0647640700008;350.8646149840006;351.12510899800145;351.10284060900085;;;;;;;;;;;;;;;;;;;;;;351.11735872700046;351.12510899800145;351.12510899800145;353.6179445460002;353.6179445460002;353.6179445460002;355.0184647950009;None;None;z;1.3920824889992218;None;;;;;;;;;;;;;;;;;;;;;;;;;;;;;;;;;;;;;;;;;;;;;;;;;;;;;;;;test_1002_4;1;2026-02-10_20h00.56.155;Full_PT;2024.2.1;60.01183253303972;2026-02-10 20h01.10.490417 +0000
;;(600, 450);Objects_Dataset/desk_microphone.jpg;(300, 300);(300, -200);Incongruent;Objects_Dataset/tennis_ball.jpg;(200, 200);(300, 200);;;2.5;40;40;0;;;;;;11;Scenes_Dataset/kitchen_A.jpg;old;left;down;None;None;z;1.3416065520013944;None;;;;;;;;;0;40;40;10;;;;;;;;;355.0251910340012;;;;;;;;;;;;;;;;;;;;;;;355.01872774000003;355.0251910340012;357.5423895040003;357.2820830110013;357.5423895040003;357.5208509760014;;;;;;;;;;;;;;;;;;;;;;357.53478392500074;357.5423895040003;357.5423895040003;360.0364472730016;360.0364472730016;360.0364472730016;361.3851696340007;None;None;z;1.3416065520013944;None;;;;;;;;;;;;;;;;;;;;;;;;;;;;;;;;;;;;;;;;;;;;;;;;;;;;;;;;test_1002_4;1;2026-02-10_20h00.56.155;Full_PT;2024.2.1;60.01183253303972;2026-02-10 20h01.10.490417 +0000
;;(600, 451);Objects_Dataset/megaphone.jpg;(300, 257);(300, 200);Incongruent;Objects_Dataset/water_bottle.jpg;(350, 222);(300, -200);;;3.2;41;41;0;;;;;;51;Scenes_Dataset/hair_salon_A.jpg;old;left;up;None;None;z;0.9792539450008917;None;;;;;;;;;0;41;41;50;;;;;;;;;361.3909028830003;;;;;;;;;;;;;;;;;;;;;;;361.38543121100156;361.3909028830003;364.6133615250001;363.649298114;363.8993708770013;364.587967245001;;;;;;;;;;;;;;;;;;;;;;364.60553599500054;364.6133615250001;364.6133615250001;367.1028798570005;367.1028798570005;367.1028798570005;368.0873846150007;None;None;z;0.9792539450008917;None;;;;;;;;;;;;;;;;;;;;;;;;;;;;;;;;;;;;;;;;;;;;;;;;;;;;;;;;test_1002_4;1;2026-02-10_20h00.56.155;Full_PT;2024.2.1;60.01183253303972;2026-02-10 20h01.10.490417 +0000
;;(600, 398);Objects_Dataset/battery.jpg;(300, 188);(300, -200);Incongruent;Objects_Dataset/luggage_carrier_cart.jpg;(214, 350);(300, 200);;;2.3;42;42;0;;;;;;7;Scenes_Dataset/sky_A.jpg;old;left;down;None;None;z;0.546149810001225;None;;;;;;;;;0;42;42;6;;;;;;;;;368.10069126500093;;;;;;;;;;;;;;;;;;;;;;;368.0876580440017;368.10069126500093;370.401040783001;370.35102444600125;370.6122988170009;370.58891098000095;;;;;;;;;;;;;;;;;;;;;;370.6045054060014;370.6122988170009;370.6122988170009;373.1037434810005;373.1037434810005;373.1037434810005;373.65360099400095;None;None;z;0.546149810001225;None;;;;;;;;;;;;;;;;;;;;;;;;;;;;;;;;;;;;;;;;;;;;;;;;;;;;;;;;test_1002_4;1;2026-02-10_20h00.56.155;Full_PT;2024.2.1;60.01183253303972;2026-02-10 20h01.10.490417 +0000
;;(600, 450);Objects_Dataset/handcuffs.jpg;(300, 183);(300, -200);Incongruent;Objects_Dataset/staple_puller.jpg;(200, 200);(300, 200);;;2.7;43;43;0;;;;;;15;Scenes_Dataset/balcony.jpg;old;left;down;None;None;z;6.18087751999883;None;;;;;;;;;0;43;43;14;;;;;;;;;373.65936029600016;;;;;;;;;;;;;;;;;;;;;;;373.65387610000107;373.65936029600016;376.37110109600144;375.91772954800035;376.1677374720002;376.3537254190014;;;;;;;;;;;;;;;;;;;;;;376.36535070300124;376.37110109600144;376.37110109600144;378.86900705100015;378.86900705100015;378.86900705100015;385.05458942900077;None;None;z;6.18087751999883;None;;;;;;;;;;;;;;;;;;;;;;;;;;;;;;;;;;;;;;;;;;;;;;;;;;;;;;;;test_1002_4;1;2026-02-10_20h00.56.155;Full_PT;2024.2.1;60.01183253303972;2026-02-10 20h01.10.490417 +0000
;;(600, 375);Objects_Dataset/rolling_pin.jpg;(300, 300);(300, 200);Incongruent;Objects_Dataset/tie.jpg;(259, 300);(300, -200);;;2.55;44;44;0;;;;;;38;Scenes_Dataset/snow_A.jpg;old;left;up;None;None;z;1.6462156529996719;None;;;;;;;;;0;44;44;37;;;;;;;;;385.06028702500043;;;;;;;;;;;;;;;;;;;;;;;385.05486433900114;385.06028702500043;387.6308963650008;387.3193547210012;387.5693275540016;387.6083367620013;;;;;;;;;;;;;;;;;;;;;;387.62305338900114;387.6308963650008;387.6308963650008;390.1236635680016;390.1236635680016;390.1236635680016;391.77238504100023;None;None;z;1.6462156529996719;None;;;;;;;;;;;;;;;;;;;;;;;;;;;;;;;;;;;;;;;;;;;;;;;;;;;;;;;;test_1002_4;1;2026-02-10_20h00.56.155;Full_PT;2024.2.1;60.01183253303972;2026-02-10 20h01.10.490417 +0000
;;(600, 450);Objects_Dataset/locker.jpg;(264, 400);(300, -200);Incongruent;Objects_Dataset/domino_piece.jpg;(200, 174);(300, 200);;;2.95;45;45;0;;;;;;20;Scenes_Dataset/road_A.jpg;old;left;down;None;None;z;0.4800333570001385;None;;;;;;;;;0;45;45;19;;;;;;;;;391.77808609600106;;;;;;;;;;;;;;;;;;;;;;;391.772646499001;391.77808609600106;394.749942198001;394.0371294300003;394.28765572500015;394.7265056940014;;;;;;;;;;;;;;;;;;;;;;394.74199571100144;394.749942198001;394.749942198001;397.241850886001;397.241850886001;397.241850886001;397.7236739740001;None;None;z;0.4800333570001385;None;;;;;;;;;;;;;;;;;;;;;;;;;;;;;;;;;;;;;;;;;;;;;;;;;;;;;;;;test_1002_4;1;2026-02-10_20h00.56.155;Full_PT;2024.2.1;60.01183253303972;2026-02-10 20h01.10.490417 +0000
;;(600, 450);Objects_Dataset/set_square.jpg;(300, 182);(300, 200);Congruent;Objects_Dataset/drawing_compass.jpg;(111, 300);(300, -200);;;2.15;46;46;0;;;;;;56;Scenes_Dataset/classroom_A.jpg;old;left;up;None;None;c;0.8433196240002871;None;;;;;;;;;0;46;46;55;;;;;;;;;397.7294597070013;;;;;;;;;;;;;;;;;;;;;;;397.7239523390017;397.7294597070013;399.8886476380012;399.9884976050016;400.241262734;400.2263478880013;;;;;;;;;;;;;;;;;;;;;;400.2365122200008;400.241262734;400.241262734;402.74257190500066;402.74257190500066;402.74257190500066;403.5911971630012;None;None;c;0.8433196240002871;None;;;;;;;;;;;;;;;;;;;;;;;;;;;;;;;;;;;;;;;;;;;;;;;;;;;;;;;;test_1002_4;1;2026-02-10_20h00.56.155;Full_PT;2024.2.1;60.01183253303972;2026-02-10 20h01.10.490417 +0000
;;(600, 450);Objects_Dataset/beach_umbrella.jpg;(266, 300);(300, 200);Congruent;Objects_Dataset/whelk.jpg;(250, 143);(300, -200);;;3.15;47;47;0;;;;;;50;Scenes_Dataset/beach_A.jpg;old;left;up;None;None;c;1.0694878969989077;None;;;;;;;;;0;47;47;49;;;;;;;;;403.5967596040009;;;;;;;;;;;;;;;;;;;;;;;403.59147266000036;403.5967596040009;406.755776684;405.85569786400083;406.10559173800175;406.7412446690014;;;;;;;;;;;;;;;;;;;;;;406.75076001900015;406.755776684;406.755776684;409.26039476200094;409.26039476200094;409.26039476200094;410.34462801100017;None;None;c;1.0694878969989077;None;;;;;;;;;;;;;;;;;;;;;;;;;;;;;;;;;;;;;;;;;;;;;;;;;;;;;;;;test_1002_4;1;2026-02-10_20h00.56.155;Full_PT;2024.2.1;60.01183253303972;2026-02-10 20h01.10.490417 +0000
;;(600, 450);Objects_Dataset/shield.jpg;(199, 300);(300, -200);Congruent;Objects_Dataset/armor.jpg;(270, 270);(300, 200);;;2.25;48;48;0;;;;;;6;Scenes_Dataset/castle_A.jpg;old;left;down;None;None;c;0.9609017439997842;None;;;;;;;;;0;48;48;5;;;;;;;;;410.3502356330009;;;;;;;;;;;;;;;;;;;;;;;410.34489056500024;410.3502356330009;412.60654345500006;412.60654345500006;412.8612961840008;412.8453687480014;;;;;;;;;;;;;;;;;;;;;;412.8555390320016;412.8612961840008;412.8612961840008;415.36097278300076;415.36097278300076;415.36097278300076;416.32587581700136;None;None;c;0.9609017439997842;None;;;;;;;;;;;;;;;;;;;;;;;;;;;;;;;;;;;;;;;;;;;;;;;;;;;;;;;;test_1002_4;1;2026-02-10_20h00.56.155;Full_PT;2024.2.1;60.01183253303972;2026-02-10 20h01.10.490417 +0000
;;(600, 397);Objects_Dataset/disabled_signal.jpg;(350, 350);(300, 200);Congruent;Objects_Dataset/barrier.jpg;(300, 300);(300, -200);;;2.95;49;49;0;;;;;;46;Scenes_Dataset/parking_lot_A.jpg;old;left;up;None;None;c;1.99876828899869;None;;;;;;;;;0;49;49;45;;;;;;;;;416.3315592760009;;;;;;;;;;;;;;;;;;;;;;;416.3261481210011;416.3315592760009;419.2998182580013;418.59137680599997;418.8409001330001;419.27931747;;;;;;;;;;;;;;;;;;;;;;419.2918594620005;419.2998182580013;419.2998182580013;421.7951255800017;421.7951255800017;421.7951255800017;423.8132193220008;None;None;c;1.99876828899869;None;;;;;;;;;;;;;;;;;;;;;;;;;;;;;;;;;;;;;;;;;;;;;;;;;;;;;;;;test_1002_4;1;2026-02-10_20h00.56.155;Full_PT;2024.2.1;60.01183253303972;2026-02-10 20h01.10.490417 +0000
;;(600, 400);Objects_Dataset/banknotes.jpg;(300, 154);(300, -200);Congruent;Objects_Dataset/gold_bar.jpg;(300, 219);(300, 200);;;2.4;50;50;0;;;;;;9;Scenes_Dataset/vault_A.jpg;old;left;down;None;None;c;1.4121502399993915;None;;;;;;;;;0;50;50;8;;;;;;;;;423.8186680600011;;;;;;;;;;;;;;;;;;;;;;;423.81349414500073;423.8186680600011;426.22520093000094;426.07525278700086;426.33298025800104;426.3138912500017;;;;;;;;;;;;;;;;;;;;;;426.3253016310009;426.33298025800104;426.33298025800104;428.8297118160008;428.8297118160008;428.8297118160008;430.2447513210009;None;None;c;1.4121502399993915;None;;;;;;;;;;;;;;;;;;;;;;;;;;;;;;;;;;;;;;;;;;;;;;;;;;;;;;;;test_1002_4;1;2026-02-10_20h00.56.155;Full_PT;2024.2.1;60.01183253303972;2026-02-10 20h01.10.490417 +0000
;;(600, 402);Objects_Dataset/eskimo_coat.jpg;(300, 300);(300, 200);Incongruent;Objects_Dataset/brown_adhesive_tape.jpg;(250, 190);(300, -200);;;2.3;51;51;0;;;;;;59;Scenes_Dataset/savannah_A.jpg;old;left;up;None;None;z;0.7567021449995082;None;;;;;;;;;0;51;51;58;;;;;;;;;430.250405570001;;;;;;;;;;;;;;;;;;;;;;;430.2450122500013;430.250405570001;432.5586091540008;432.5085874340002;432.7633922190016;432.74598323900136;;;;;;;;;;;;;;;;;;;;;;432.75647778000166;432.7633922190016;432.7633922190016;435.26119400600146;435.26119400600146;435.26119400600146;436.03610169200147;None;None;z;0.7567021449995082;None;;;;;;;;;;;;;;;;;;;;;;;;;;;;;;;;;;;;;;;;;;;;;;;;;;;;;;;;test_1002_4;1;2026-02-10_20h00.56.155;Full_PT;2024.2.1;60.01183253303972;2026-02-10 20h01.10.490417 +0000
;;(600, 450);Objects_Dataset/fan.jpg;(350, 350);(300, 200);Incongruent;Objects_Dataset/ladder.jpg;(241, 400);(300, -200);;;2.9;52;52;0;;;;;;45;Scenes_Dataset/skate_park_A.jpg;old;left;up;None;None;z;0.9865924089990585;None;;;;;;;;;0;52;52;44;;;;;;;;;436.043354196001;;;;;;;;;;;;;;;;;;;;;;;436.03638008300004;436.043354196001;438.9551838760017;438.294167606;438.54407354900104;438.93224651900164;;;;;;;;;;;;;;;;;;;;;;438.9470876990017;438.9551838760017;438.9551838760017;441.44728700700034;441.44728700700034;441.44728700700034;442.44929517400124;None;None;z;0.9865924089990585;None;;;;;;;;;;;;;;;;;;;;;;;;;;;;;;;;;;;;;;;;;;;;;;;;;;;;;;;;test_1002_4;1;2026-02-10_20h00.56.155;Full_PT;2024.2.1;60.01183253303972;2026-02-10 20h01.10.490417 +0000
;;(600, 450);Objects_Dataset/feeding_bottle.jpg;(300, 295);(300, -200);Congruent;Objects_Dataset/mobile_baby.jpg;(350, 263);(300, 200);;;2.1;53;53;0;;;;;;3;Scenes_Dataset/nursery_A.jpg;old;left;down;None;None;z;0.8638848949995008;None;;;;;;;;;0;53;53;2;;;;;;;;;442.4546235550006;;;;;;;;;;;;;;;;;;;;;;;442.4495562830016;442.4546235550006;444.5615517360002;444.71105818700016;444.965914118;444.94977263000146;;;;;;;;;;;;;;;;;;;;;;444.9603063620016;444.965914118;444.965914118;447.46601098300016;447.46601098300016;447.46601098300016;448.3313087200004;None;None;z;0.8638848949995008;None;;;;;;;;;;;;;;;;;;;;;;;;;;;;;;;;;;;;;;;;;;;;;;;;;;;;;;;;test_1002_4;1;2026-02-10_20h00.56.155;Full_PT;2024.2.1;60.01183253303972;2026-02-10 20h01.10.490417 +0000
;;(600, 450);Objects_Dataset/surf_board.jpg;(114, 350);(300, 200);Congruent;Objects_Dataset/surf_suit.jpg;(256, 350);(300, -200);;;2.65;54;54;0;;;;;;40;Scenes_Dataset/waves.jpg;old;left;up;None;None;c;1.1180752639993443;None;;;;;;;;;0;54;54;39;;;;;;;;;448.3370565410005;;;;;;;;;;;;;;;;;;;;;;;448.3315855200017;448.3370565410005;450.99937680100084;450.59603661800065;450.84610864000024;450.9841128950011;;;;;;;;;;;;;;;;;;;;;;450.99386892000075;450.99937680100084;450.99937680100084;453.49981466100144;453.49981466100144;453.49981466100144;454.6333067480009;None;None;c;1.1180752639993443;None;;;;;;;;;;;;;;;;;;;;;;;;;;;;;;;;;;;;;;;;;;;;;;;;;;;;;;;;test_1002_4;1;2026-02-10_20h00.56.155;Full_PT;2024.2.1;60.01183253303972;2026-02-10 20h01.10.490417 +0000
;;(600, 450);Objects_Dataset/diving_mask.jpg;(300, 197);(300, -200);Congruent;Objects_Dataset/snorkeling_tube.jpg;(251, 300);(300, 200);;;2.55;55;55;0;;;;;;12;Scenes_Dataset/underwater_A.jpg;old;left;down;None;None;c;2.7902413550000347;None;;;;;;;;;0;55;55;11;;;;;;;;;454.63776898300057;;;;;;;;;;;;;;;;;;;;;;;454.63356767700134;454.63776898300057;457.1999211020011;456.8962744700002;457.14634429500074;457.1847765020011;;;;;;;;;;;;;;;;;;;;;;457.19443614400006;457.1999211020011;457.1999211020011;459.69964810500096;459.69964810500096;459.69964810500096;462.4993669280011;None;None;c;2.7902413550000347;None;;;;;;;;;;;;;;;;;;;;;;;;;;;;;;;;;;;;;;;;;;;;;;;;;;;;;;;;test_1002_4;1;2026-02-10_20h00.56.155;Full_PT;2024.2.1;60.01183253303972;2026-02-10 20h01.10.490417 +0000
;;(600, 403);Objects_Dataset/magic_cube.jpg;(300, 300);(300, -200);Incongruent;Objects_Dataset/colander.jpg;(191, 250);(300, 200);;;3.25;56;56;0;;;;;;26;Scenes_Dataset/church_A.jpg;old;left;down;None;None;z;0.9893208699995739;None;;;;;;;;;0;56;56;25;;;;;;;;;462.50506378700084;;;;;;;;;;;;;;;;;;;;;;;462.4996274820005;462.50506378700084;465.76874446200054;464.76361906700004;465.0135106730013;465.7504954750002;;;;;;;;;;;;;;;;;;;;;;465.76140041800136;465.76874446200054;465.76874446200054;468.2685424520005;468.2685424520005;468.2685424520005;469.26729533400066;None;None;z;0.9893208699995739;None;;;;;;;;;;;;;;;;;;;;;;;;;;;;;;;;;;;;;;;;;;;;;;;;;;;;;;;;test_1002_4;1;2026-02-10_20h00.56.155;Full_PT;2024.2.1;60.01183253303972;2026-02-10 20h01.10.490417 +0000
;;(600, 434);Objects_Dataset/watering_can.jpg;(300, 272);(300, -200);Incongruent;Objects_Dataset/racket.jpg;(300, 300);(300, 200);;;3.1;57;57;0;;;;;;23;Scenes_Dataset/art_gallery_A.jpg;old;left;down;None;None;z;2.2192410269999527;None;;;;;;;;;0;57;57;22;;;;;;;;;469.27300480300073;;;;;;;;;;;;;;;;;;;;;;;469.2675622250008;469.27300480300073;472.3907586330006;471.53168290100075;471.78160929600017;472.3703972400017;;;;;;;;;;;;;;;;;;;;;;472.3827805590008;472.3907586330006;472.3907586330006;474.88667498400173;474.88667498400173;474.88667498400173;477.1209493760016;None;None;z;2.2192410269999527;None;;;;;;;;;;;;;;;;;;;;;;;;;;;;;;;;;;;;;;;;;;;;;;;;;;;;;;;;test_1002_4;1;2026-02-10_20h00.56.155;Full_PT;2024.2.1;60.01183253303972;2026-02-10 20h01.10.490417 +0000
;;(600, 494);Objects_Dataset/bikini.jpg;(350, 350);(300, 200);Congruent;Objects_Dataset/swim_shorts.jpg;(300, 300);(300, -200);;;3.05;58;58;0;;;;;;48;Scenes_Dataset/pool_A.jpg;old;left;up;None;None;c;1.0116472440004145;None;;;;;;;;;0;58;58;47;;;;;;;;;477.12637080900095;;;;;;;;;;;;;;;;;;;;;;;477.12121392100016;477.12637080900095;480.19498917300007;479.3835756820008;479.63326708600107;480.17192474400144;;;;;;;;;;;;;;;;;;;;;;480.18683876200157;480.19498917300007;480.19498917300007;482.6862373370004;482.6862373370004;482.6862373370004;483.7038486750007;None;None;c;1.0116472440004145;None;;;;;;;;;;;;;;;;;;;;;;;;;;;;;;;;;;;;;;;;;;;;;;;;;;;;;;;;test_1002_4;1;2026-02-10_20h00.56.155;Full_PT;2024.2.1;60.01183253303972;2026-02-10 20h01.10.490417 +0000
;;(600, 399);Objects_Dataset/basketball.jpg;(282, 300);(300, -200);Congruent;Objects_Dataset/whistle.jpg;(200, 151);(300, 200);;;2.15;59;59;0;;;;;;4;Scenes_Dataset/basketball_field_A.jpg;old;left;down;None;None;c;1.0402556850003748;None;;;;;;;;;0;59;59;3;;;;;;;;;483.71038452000175;;;;;;;;;;;;;;;;;;;;;;;483.7041110090013;483.71038452000175;485.86728887500067;485.9679103790004;486.2267180910003;486.2066156410001;;;;;;;;;;;;;;;;;;;;;;486.21880237500045;486.2267180910003;486.2267180910003;488.72170081900003;488.72170081900003;488.72170081900003;489.77038747500046;None;None;c;1.0402556850003748;None;;;;;;;;;;;;;;;;;;;;;;;;;;;;;;;;;;;;;;;;;;;;;;;;;;;;;;;;test_1002_4;1;2026-02-10_20h00.56.155;Full_PT;2024.2.1;60.01183253303972;2026-02-10 20h01.10.490417 +0000
;;;;;;;;;;;;;;;;;;;;;;;;;;;;;;;;;;;;;;;;;;;;;;;;;;;;;;;;;;;;;;;;;;;;;;;;;;;;;;;;;;;;;;;;;;;;;;;;;;;;;;;;;;;;;;;;;489.77054974400016;489.7772062740005;489.7772062740005;503.4583218890002;space;13.67271441399862;None;;;;;;;;;;;;;;;;;;;;;;;;;;;;;;;;;;;;;;;;;;;;;;;;;test_1002_4;1;2026-02-10_20h00.56.155;Full_PT;2024.2.1;60.01183253303972;2026-02-10 20h01.10.490417 +0000
;;;;;;;;;;;;;;;;;;;;;;;;;;;;;;;;;;;;;;;;;;;;;;;;;;;;;;;;;;;;;;;;;;;;;;;;;;;;;;;;;;;;;;;;;;;;;;;;;;;;;;;;;;;;;;;;;;;;;;;;503.4583790180004;503.46988549300113;504.4594524130007;;;;;;;;;;;;;;;;;;;;;;;;;;;;;;;;;;;;;;;;;;;;;;test_1002_4;1;2026-02-10_20h00.56.155;Full_PT;2024.2.1;60.01183253303972;2026-02-10 20h01.10.490417 +0000
;;;;;;;;;;;;;;;;;;;;;;;;;;;;;;;;;;;;;;;;;;;;;;;;;;;;;;;;;;;;;;;;;;;;;;;;;;;;;;;;;;;;;;;;;;;;;;;;;;;;;;;;;;;;;;;;;;;;;;;;;;;504.4595210590014;504.4696178460017;504.4696178460017;506.4699010410004;506.4699010410004;510.827652766;space;6.340282799999841;None;;;;;;;;;;;;;;;;;;;;;;;;;;;;;;;;;;;;;test_1002_4;1;2026-02-10_20h00.56.155;Full_PT;2024.2.1;60.01183253303972;2026-02-10 20h01.10.490417 +0000
;;;;;;;;;;;;;;;;;;;;;;;;;;;;;;;;;;;;;;;;;;;;;;;;;;;;;;;;;;;;;;;;;;;;;;;;;;;;;;;;;;;;;;;;;;;;;;;;;;;;;;;;;;;;;;;;;;;;;;;;;;;;;;;;;;;;510.8277196320014;510.837596112;510.837596112;568.7180902940017;space;57.87631142899954;None;;;;;;;;;;;;;;;;;;;;;;;;;;;;;;test_1002_4;1;2026-02-10_20h00.56.155;Full_PT;2024.2.1;60.01183253303972;2026-02-10 20h01.10.490417 +0000
;;;;;;;;;;;;;;;;;;;;;;;;;;;;;;;;;;;;;;;;;;;;;;;;;;;;;;;;;;;;;;;;;;;;;;;;;;;;;;;;;;;;;;;;;;;;;;;;;;;;;;;;;;;;;;;;;;;;;;;;;;;;;;;;;;;;;;;;;;;568.7181530040016;568.7295254360015;568.7295254360015;584.7029224590005;space;15.968571405999683;None;;;;;;;;;;;;;;;;;;;;;;;test_1002_4;1;2026-02-10_20h00.56.155;Full_PT;2024.2.1;60.01183253303972;2026-02-10 20h01.10.490417 +0000
;;;;;;;;;;;;;;;;;;;;;;;;;;;;;;;;;;;;;;;;;;;;;;;;;;;;;;;;;;;;;;;;;;;;;;;;;;;;;;;;;;;;;;;;;;;;;;;;;;;;;;;;;;;;;;;;;;;;;;;;;;;;;;;;;;;;;;;;;;;;;;;;;;584.7029815320002;584.7152456170006;584.7152456170006;608.1897922250009;space;23.46281777400145;None;;;;;;;;;;;;;;;;test_1002_4;1;2026-02-10_20h00.56.155;Full_PT;2024.2.1;60.01183253303972;2026-02-10 20h01.10.490417 +0000
1;;(600, 364);;;; old;;;;;;2;0;0;0;;;;;;;;;;;;;;;;Scenes_Dataset/movie_theater_A.jpg;None;;;;;;;;;;;0;0;0;0;;;;;608.206394623001;;;;;;;;;;;;;;;;;;;;;;;608.2000177480004;608.206394623001;610.2193650060017;610.4520319430012;610.7063577860008;610.6906873980006;;;;;;;;;;;;;;;;;;;;;;;;;;;;;;;;;;;;;;;;;;;;;;;;;;;;;;;;;;;;;;;;;;;;;;;;;;610.697003059;610.7063577860008;610.7063577860008;610.7063577860008;613.691044000001;None;;;;;;;;;;test_1002_4;1;2026-02-10_20h00.56.155;Full_PT;2024.2.1;60.01183253303972;2026-02-10 20h01.10.490417 +0000
4;;(600, 400);;;;new;;;;;;3.25;1;1;0;;;;;;;;;;;;;;;;Scenes_Dataset/boat_interior_A.jpg;['right'];[2.3969872710003983];[0.14413423599944508];;;;;;;;;0;1;1;3;;;;;613.7027286150005;;;;;;;;;;;;;;;;;;;;;;;613.6913119710007;613.7027286150005;616.9569209390011;615.953462073001;616.2030302470012;616.9421403160013;;;;;;;;;;;;;;;;;;;;;;;;;;;;;;;;;;;;;;;;;;;;;;;;;;;;;;;;;;;;;;;;;;;;;;;;;;616.949905681;616.9569209390011;616.9569209390011;616.9569209390011;619.9587816490002;['right'];[2.3969872710003983];[0.14413423599944508];;;;;;;;test_1002_4;1;2026-02-10_20h00.56.155;Full_PT;2024.2.1;60.01183253303972;2026-02-10 20h01.10.490417 +0000
2;;(600, 337);;;;old;;;;;;3;2;2;0;;;;;;;;;;;;;;;;Scenes_Dataset/museum_A.jpg;['left'];[1.7804860649994225];[0.1678467229994567];;;;;;;;;0;2;2;1;;;;;619.9701798040005;;;;;;;;;;;;;;;;;;;;;;;619.9591087450008;619.9701798040005;622.9735699100002;622.2036146290011;622.4536710280008;622.9589932080016;;;;;;;;;;;;;;;;;;;;;;;;;;;;;;;;;;;;;;;;;;;;;;;;;;;;;;;;;;;;;;;;;;;;;;;;;;622.9653584480002;622.9735699100002;622.9735699100002;622.9735699100002;625.9735246270011;['left'];[1.7804860649994225];[0.1678467229994567];;;;;;;;test_1002_4;1;2026-02-10_20h00.56.155;Full_PT;2024.2.1;60.01183253303972;2026-02-10 20h01.10.490417 +0000
3;;(600, 400);;;;new;;;;;;2.5;3;3;0;;;;;;;;;;;;;;;;Scenes_Dataset/building_entrance_A.jpg;['right'];[1.5545880110003054];[0.1680018070001097];;;;;;;;;0;3;3;2;;;;;625.9868003440006;;;;;;;;;;;;;;;;;;;;;;;625.973777186;625.9868003440006;628.4873281170003;628.2215655680011;628.4712652100006;628.4746058050005;;;;;;;;;;;;;;;;;;;;;;;;;;;;;;;;;;;;;;;;;;;;;;;;;;;;;;;;;;;;;;;;;;;;;;;;;;628.4801338400011;628.4873281170003;628.4873281170003;628.4873281170003;631.4770662240007;['right'];[1.5545880110003054];[0.1680018070001097];;;;;;;;test_1002_4;1;2026-02-10_20h00.56.155;Full_PT;2024.2.1;60.01183253303972;2026-02-10 20h01.10.490417 +0000
;;;;;;;;;;;;;;;;;;;;;;;;;;;;;;;;;;;;;;;;;;;;;;;;;;;;;;;;;;;;;;;;;;;;;;;;;;;;;;;;;;;;;;;;;;;;;;;;;;;;;;;;;;;;;;;;;;;;;;;;;;;;;;;;;;;;;;;;;;;;;;;;;;;;;;;;;;;;;;;;;631.4772725830007;631.4890108950003;631.4890108950003;638.6617047980017;space;7.168896658999074;None;test_1002_4;1;2026-02-10_20h00.56.155;Full_PT;2024.2.1;60.01183253303972;2026-02-10 20h01.10.490417 +0000
;;(600, 403);None;None;None;None;None;None;None;;;None;0;0;0;;;;;;68;Scenes_Dataset/field_A.jpg;new;right;None;;;;;;;;;;;;;;;;;;;;;;0;0;0;67;;;;;;;;;;;;;;;;;;;;;;;;638.7138591110015;;;;;;;;;;;;;;;;;;;;;;;;;;;;;;;;;;;;;;;;;;;;;;;;;;;;;;;;;;;;;;;;;;;;;;;;;;;;;;;;;;;;;;;;;;;;;;;;;;;;