Index,scene_encode,scene_size,object_encode,object_size,target_pos,condition_encode,lure,lure_size,lure_pos,ex_new,new_scene_size,jitter_ITI,thisN,thisTrialN,thisRepN,slider_example.response,slider_example.rt,key_ex_rate.keys,key_ex_rate.rt,key_ex_rate.duration,order_pairs,scene,condition_old,correct_key_old,correct_key_AFC,slider_cong.response,slider_cong.rt,key_rate.keys,key_rate.rt,key_rate.duration,exemplo_PAL.thisRepN,exemplo_PAL.thisTrialN,exemplo_PAL.thisN,exemplo_PAL.thisIndex,trial_encode.thisRepN,trial_encode.thisTrialN,trial_encode.thisN,trial_encode.thisIndex,thisRow.t,notes,Welcome.started,text_hi.started,key_welcome.started,Welcome.stopped,key_welcome.keys,key_welcome.rt,key_welcome.duration,Explanation_PAL.started,text_Explain_PAL.started,key_explain_PAL.started,Explanation_PAL.stopped,key_explain_PAL.keys,key_explain_PAL.rt,key_explain_PAL.duration,Explain_Rating.started,text_explain_rate.started,key_explain_rate.started,Explain_Rating.stopped,key_explain_rate.keys,key_explain_rate.rt,key_explain_rate.duration,blank.started,image_blank.started,cross_25.started,cross_25.stopped,image_blank.stopped,blank.stopped,Example_PAL.started,image_ex_scene.started,image_ex_object.started,key_ex_rate.started,slider_example.started,text_example.started,Example_PAL.stopped,exemplo_PAL.slider_example.response,exemplo_PAL.slider_example.rt,exemplo_PAL.key_ex_rate.keys,exemplo_PAL.key_ex_rate.rt,exemplo_PAL.key_ex_rate.duration,Start_PAL.started,text_end_ex.started,text_start_PAL.started,key_start_PAL.started,text_end_ex.stopped,Start_PAL.stopped,key_start_PAL.keys,key_start_PAL.rt,key_start_PAL.duration,Encode.started,image_scene_encode.started,image_object_encode.started,text_rating.started,slider_cong.started,key_rate.started,Encode.stopped,trial_encode.slider_cong.response,trial_encode.slider_cong.rt,trial_encode.key_rate.keys,trial_encode.key_rate.rt,trial_encode.key_rate.duration,Pause_1.started,text_pausa1.started,key_Start_Cog.started,participant,session,date,expName,psychopyVersion,frameRate,expStart,
,,,,,,,,,,,,,,,,,,,,,,,,,,,,,,,,,,,,,,,,,0.011793896002927795,0.02521023700319347,0.02521023700319347,2.499138168001082,space,2.3599032040001475,None,,,,,,,,,,,,,,,,,,,,,,,,,,,,,,,,,,,,,,,,,,,,,,,,,,,,,,,,,teste_1002_5,001,2026-02-10_20h23.01.939,Full_PT,2024.2.1,59.71156757300202,2026-02-10 20h23.20.374846 +0000,
,,,,,,,,,,,,,,,,,,,,,,,,,,,,,,,,,,,,,,,,,,,,,,,,2.499188296002103,2.509788336999918,4.502309485000296,14.438060120002774,space,9.930827824999142,None,,,,,,,,,,,,,,,,,,,,,,,,,,,,,,,,,,,,,,,,,,,,,,,,,,teste_1002_5,001,2026-02-10_20h23.01.939,Full_PT,2024.2.1,59.71156757300202,2026-02-10 20h23.20.374846 +0000,
,,,,,,,,,,,,,,,,,,,,,,,,,,,,,,,,,,,,,,,,,,,,,,,,,,,,,,,14.438115387001744,14.453956896002637,16.437364559002162,17.388216552000813,space,0.939884459003224,None,,,,,,,,,,,,,,,,,,,,,,,,,,,,,,,,,,,,,,,,,,,teste_1002_5,001,2026-02-10_20h23.01.939,Full_PT,2024.2.1,59.71156757300202,2026-02-10 20h23.20.374846 +0000,
2,Scenes_Dataset/museum_A.jpg,"(600, 337)",Objects_Dataset/picnic_towel.jpg,"(300, 300)","(250, 200)",incongruent,Objects_Dataset/fluorescent_bracelets.jpg,"(300, 300)","(250, -200)",Scenes_Dataset/boat_interior_A.jpg,"(600, 400)",2.5,0,0,0,None,None,z,5.037188458998571,None,,,,,,,,,,,0,0,0,1,,,,,17.405694544002472,,,,,,,,,,,,,,,,,,,,,,,17.39790874100072,17.405694544002472,19.64240159200199,19.915917001002526,19.915917001002526,19.888396201000432,19.902408345002186,19.915917001002526,19.915917001002526,19.915917001002526,22.407542767999985,22.407542767999985,24.972646947000612,None,None,z,5.037188458998571,None,,,,,,,,,,,,,,,,,,,,,,,,,teste_1002_5,001,2026-02-10_20h23.01.939,Full_PT,2024.2.1,59.71156757300202,2026-02-10 20h23.20.374846 +0000,
1,Scenes_Dataset/movie_theater_A.jpg,"(600, 364)",Objects_Dataset/movie_reels.jpg,"(350, 268)","(250, -200)",congruent,Objects_Dataset/3d_glasses.jpg,"(300, 300)","(250, 200)",Scenes_Dataset/building_entrance_A.jpg,"(600, 400)",2,1,1,0,None,None,c,2.889357870000822,None,,,,,,,,,,,0,1,1,0,,,,,24.979609784000786,,,,,,,,,,,,,,,,,,,,,,,24.973039450000215,24.979609784000786,27.222429944002215,27.47973819100298,26.988155752002058,27.456065941001725,27.47104759800277,27.47973819100298,27.47973819100298,27.47973819100298,29.958339176002482,29.958339176002482,30.387180322002678,None,None,c,2.889357870000822,None,,,,,,,,,,,,,,,,,,,,,,,,,teste_1002_5,001,2026-02-10_20h23.01.939,Full_PT,2024.2.1,59.71156757300202,2026-02-10 20h23.20.374846 +0000,
,,,,,,,,,,,,,,,,,,,,,,,,,,,,,,,,,,,,,,,,,,,,,,,,,,,,,,,,,,,,,,,,,,,,,,,,,,,,,,,,30.387361306002276,30.395339218001027,31.889473956001893,31.889473956001893,31.906106999002077,45.69249638600013,space,13.799799465999968,None,,,,,,,,,,,,,,,,teste_1002_5,001,2026-02-10_20h23.01.939,Full_PT,2024.2.1,59.71156757300202,2026-02-10 20h23.20.374846 +0000,
,,"(600, 403)",Objects_Dataset/magic_cube.jpg,"(300, 300)","(300, -200)",Incongruent,Objects_Dataset/colander.jpg,"(191, 250)","(300, 200)",,,3.25,0,0,0,,,,,,26,Scenes_Dataset/church_A.jpg,old,left,down,None,None,z,2.1013178800021706,None,,,,,0,0,0,25,45.7506377910031,,,,,,,,,,,,,,,,,,,,,,,45.74300595300156,45.7506377910031,47.94194197900288,48.192079801003274,49.01626787100031,48.99242880300153,,,,,,,,,,,,,,,,,,,,,,49.0069357680004,49.01626787100031,49.01626787100031,51.507792249001795,51.507792249001795,51.507792249001795,53.61696496400327,None,None,z,2.1013178800021706,None,,,,teste_1002_5,001,2026-02-10_20h23.01.939,Full_PT,2024.2.1,59.71156757300202,2026-02-10 20h23.20.374846 +0000,
,,"(600, 461)",Objects_Dataset/pills.jpg,"(216, 250)","(300, -200)",Congruent,Objects_Dataset/thermometer.jpg,"(300, 199)","(300, 200)",,,3,1,1,0,,,,,,21,Scenes_Dataset/pharmacy_A.jpg,old,left,down,None,None,x,0.3473373439992429,None,,,,,0,1,1,20,53.62626854900009,,,,,,,,,,,,,,,,,,,,,,,53.61729101700257,53.62626854900009,55.87634669700128,56.12649590100045,56.63405701800002,56.61032611000337,,,,,,,,,,,,,,,,,,,,,,56.62542218700037,56.63405701800002,56.63405701800002,59.1097553590007,59.1097553590007,59.1097553590007,59.4609599860014,None,None,x,0.3473373439992429,None,,,,teste_1002_5,001,2026-02-10_20h23.01.939,Full_PT,2024.2.1,59.71156757300202,2026-02-10 20h23.20.374846 +0000,
,,"(600, 436)",Objects_Dataset/remote_control.jpg,"(300, 293)","(300, 200)",Congruent,Objects_Dataset/dvd_player.jpg,"(350, 144)","(300, -200)",,,2.1,2,2,0,,,,,,55,Scenes_Dataset/living_room_A.jpg,old,left,up,None,None,c,0.34672080499876756,None,,,,,0,2,2,54,59.47610865500246,,,,,,,,,,,,,,,,,,,,,,,59.46123162200092,59.47610865500246,61.71051427200291,61.966934907002724,61.5764015340028,61.94415738700263,,,,,,,,,,,,,,,,,,,,,,61.95829364600286,61.966934907002724,61.966934907002724,64.446385336003,64.446385336003,64.446385336003,64.81227089599997,None,None,c,0.34672080499876756,None,,,,teste_1002_5,001,2026-02-10_20h23.01.939,Full_PT,2024.2.1,59.71156757300202,2026-02-10 20h23.20.374846 +0000,
,,"(600, 447)",Objects_Dataset/crown.jpg,"(300, 249)","(300, -200)",Congruent,Objects_Dataset/throne.jpg,"(234, 350)","(300, 200)",,,2.15,3,3,0,,,,,,30,Scenes_Dataset/palace_interior_A.jpg,old,left,down,None,None,c,0.9714101120007399,None,,,,,0,3,3,29,64.81936258600035,,,,,,,,,,,,,,,,,,,,,,,64.81273160199999,64.81936258600035,67.06152986600137,67.31976910100275,66.97812793699995,67.2952238550024,,,,,,,,,,,,,,,,,,,,,,67.3109517060002,67.31976910100275,67.31976910100275,69.79767254300168,69.79767254300168,69.79767254300168,70.78056540700345,None,None,c,0.9714101120007399,None,,,,teste_1002_5,001,2026-02-10_20h23.01.939,Full_PT,2024.2.1,59.71156757300202,2026-02-10 20h23.20.374846 +0000,
,,"(600, 524)",Objects_Dataset/tin.jpg,"(233, 350)","(300, 200)",Incongruent,Objects_Dataset/lighter.jpg,"(300, 197)","(300, -200)",,,3.25,4,4,0,,,,,,52,Scenes_Dataset/childrens_room_A.jpg,old,left,up,None,None,c,0.07722012200247264,None,,,,,0,4,4,51,70.78751622900018,,,,,,,,,,,,,,,,,,,,,,,70.78093636800259,70.78751622900018,73.04563579500245,73.29562011000235,74.05960128600054,74.02933122000104,,,,,,,,,,,,,,,,,,,,,,74.05006789800245,74.05960128600054,74.05960128600054,76.53186311600075,76.53186311600075,76.53186311600075,76.62648576900028,None,None,c,0.07722012200247264,None,,,,teste_1002_5,001,2026-02-10_20h23.01.939,Full_PT,2024.2.1,59.71156757300202,2026-02-10 20h23.20.374846 +0000,
,,"(600, 450)",Objects_Dataset/elevator_buttons_panel.jpg,"(257, 300)","(300, -200)",Congruent,Objects_Dataset/surveillance_camera.jpg,"(300, 204)","(300, 200)",,,2.75,5,5,0,,,,,,16,Scenes_Dataset/elevator_A.jpg,old,left,down,None,None,x,0.038596704998781206,None,,,,,0,5,5,15,76.63336899300339,,,,,,,,,,,,,,,,,,,,,,,76.62681543600047,76.63336899300339,78.87977356300325,79.12977597600184,79.40325559100165,79.38013470200167,,,,,,,,,,,,,,,,,,,,,,79.39450146700256,79.40325559100165,79.40325559100165,81.88249935600106,81.88249935600106,81.88249935600106,81.93924622100167,None,None,x,0.038596704998781206,None,,,,teste_1002_5,001,2026-02-10_20h23.01.939,Full_PT,2024.2.1,59.71156757300202,2026-02-10 20h23.20.374846 +0000,
,,"(600, 494)",Objects_Dataset/bikini.jpg,"(350, 350)","(300, 200)",Congruent,Objects_Dataset/swim_shorts.jpg,"(300, 300)","(300, -200)",,,3.05,6,6,0,,,,,,48,Scenes_Dataset/pool_A.jpg,old,left,up,None,None,z,1.9976987170011853,None,,,,,0,6,6,47,81.94720790700012,,,,,,,,,,,,,,,,,,,,,,,81.93970410500333,81.94720790700012,84.19705976200203,84.44703845800177,85.00474815800044,84.98065875400061,,,,,,,,,,,,,,,,,,,,,,84.99594353000066,85.00474815800044,85.00474815800044,87.48339179300092,87.48339179300092,87.48339179300092,89.49785473700103,None,None,z,1.9976987170011853,None,,,,teste_1002_5,001,2026-02-10_20h23.01.939,Full_PT,2024.2.1,59.71156757300202,2026-02-10 20h23.20.374846 +0000,
,,"(600, 450)",Objects_Dataset/torch.jpg,"(210, 300)","(300, -200)",Incongruent,Objects_Dataset/semaphore.jpg,"(199, 300)","(300, 200)",,,2.05,7,7,0,,,,,,2,Scenes_Dataset/storage_A.jpg,old,left,down,None,None,z,2.719627591999597,None,,,,,0,7,7,1,89.50490255800105,,,,,,,,,,,,,,,,,,,,,,,89.49830862700037,89.50490255800105,91.74745673400321,92.00094051300039,91.56421075800245,91.98103797000294,,,,,,,,,,,,,,,,,,,,,,91.99163095100084,92.00094051300039,92.00094051300039,94.48148050700183,94.48148050700183,94.48148050700183,97.21579530600138,None,None,z,2.719627591999597,None,,,,teste_1002_5,001,2026-02-10_20h23.01.939,Full_PT,2024.2.1,59.71156757300202,2026-02-10 20h23.20.374846 +0000,
,,"(600, 398)",Objects_Dataset/ring.jpg,"(128, 150)","(300, 200)",Congruent,Objects_Dataset/jewelry_box.jpg,"(267, 300)","(300, -200)",,,2.7,8,8,0,,,,,,41,Scenes_Dataset/jewelery_A.jpg,old,left,up,None,None,c,7.83047192199956,None,,,,,0,8,8,40,97.22268784800326,,,,,,,,,,,,,,,,,,,,,,,97.21612439500313,97.22268784800326,99.46608001999994,99.71617921100187,99.93293505500333,99.91577332900124,,,,,,,,,,,,,,,,,,,,,,99.92410919700342,99.93293505500333,99.93293505500333,102.41861094400156,102.41861094400156,102.41861094400156,110.26596728300137,None,None,c,7.83047192199956,None,,,,teste_1002_5,001,2026-02-10_20h23.01.939,Full_PT,2024.2.1,59.71156757300202,2026-02-10 20h23.20.374846 +0000,
,,"(600, 400)",Objects_Dataset/banknotes.jpg,"(300, 154)","(300, -200)",Congruent,Objects_Dataset/gold_bar.jpg,"(300, 219)","(300, 200)",,,2.4,9,9,0,,,,,,9,Scenes_Dataset/vault_A.jpg,old,left,down,None,None,c,0.4829422459988564,None,,,,,0,9,9,8,110.2728610890008,,,,,,,,,,,,,,,,,,,,,,,110.26629357100319,110.2728610890008,112.517848331001,112.77215741300097,112.68453864000185,112.75149856400094,,,,,,,,,,,,,,,,,,,,,,112.76359834800314,112.77215741300097,112.77215741300097,115.2541398430003,115.2541398430003,115.2541398430003,115.74912411200057,None,None,c,0.4829422459988564,None,,,,teste_1002_5,001,2026-02-10_20h23.01.939,Full_PT,2024.2.1,59.71156757300202,2026-02-10 20h23.20.374846 +0000,
,,"(600, 400)",Objects_Dataset/soccer_ball.jpg,"(200, 194)","(300, -200)",Congruent,Objects_Dataset/football_boots.jpg,"(300, 300)","(300, 200)",,,2.9,10,10,0,,,,,,19,Scenes_Dataset/soccer_stadium_A.jpg,old,left,down,None,None,c,4.814084710000316,None,,,,,0,10,10,18,115.75598098800037,,,,,,,,,,,,,,,,,,,,,,,115.74945532400307,115.75598098800037,118.00187076300062,118.25218284100265,118.6724177870019,118.65259962100026,,,,,,,,,,,,,,,,,,,,,,118.66417643500245,118.6724177870019,118.6724177870019,121.1549992720029,121.1549992720029,121.1549992720029,125.97072357400248,None,None,c,4.814084710000316,None,,,,teste_1002_5,001,2026-02-10_20h23.01.939,Full_PT,2024.2.1,59.71156757300202,2026-02-10 20h23.20.374846 +0000,
,,"(600, 450)",Objects_Dataset/fan.jpg,"(350, 350)","(300, 200)",Incongruent,Objects_Dataset/ladder.jpg,"(241, 400)","(300, -200)",,,2.9,11,11,0,,,,,,45,Scenes_Dataset/skate_park_A.jpg,old,left,up,None,None,z,0.24364500099909492,None,,,,,0,11,11,44,125.98557164200247,,,,,,,,,,,,,,,,,,,,,,,125.97098310100046,125.98557164200247,128.21991041700312,128.4699637090016,128.8956376080023,128.8703120340033,,,,,,,,,,,,,,,,,,,,,,128.88671498400072,128.8956376080023,128.8956376080023,131.37345944400295,131.37345944400295,131.37345944400295,131.63596201100154,None,None,z,0.24364500099909492,None,,,,teste_1002_5,001,2026-02-10_20h23.01.939,Full_PT,2024.2.1,59.71156757300202,2026-02-10 20h23.20.374846 +0000,
,,"(600, 402)",Objects_Dataset/hotel_bell.jpg,"(171, 200)","(300, 200)",Incongruent,Objects_Dataset/door_mat.jpg,"(300, 300)","(300, -200)",,,2.85,12,12,0,,,,,,44,Scenes_Dataset/campsite_A.jpg,old,left,up,None,None,z,0.41952232099720277,None,,,,,0,12,12,43,131.64288092400238,,,,,,,,,,,,,,,,,,,,,,,131.6362945130022,131.64288092400238,133.8876777330006,134.1379384230022,134.50930804000018,134.48807866300194,,,,,,,,,,,,,,,,,,,,,,134.50092950700127,134.50930804000018,134.50930804000018,136.9895625450008,136.9895625450008,136.9895625450008,137.42104906000168,None,None,z,0.41952232099720277,None,,,,teste_1002_5,001,2026-02-10_20h23.01.939,Full_PT,2024.2.1,59.71156757300202,2026-02-10 20h23.20.374846 +0000,
,,"(600, 400)",Objects_Dataset/train_seats.jpg,"(300, 300)","(300, 200)",Incongruent,Objects_Dataset/beach_bucket.jpg,"(300, 300)","(300, -200)",,,2.75,13,13,0,,,,,,42,Scenes_Dataset/bakery_A.jpg,old,left,up,None,None,z,0.30232455800069147,None,,,,,0,13,13,41,137.4279429820017,,,,,,,,,,,,,,,,,,,,,,,137.42137945700233,137.4279429820017,139.67216794600245,139.92212657600248,140.195656357002,140.1721918780022,,,,,,,,,,,,,,,,,,,,,,140.1869014940021,140.195656357002,140.195656357002,142.67474614200182,142.67474614200182,142.67474614200182,142.98592963800183,None,None,z,0.30232455800069147,None,,,,teste_1002_5,001,2026-02-10_20h23.01.939,Full_PT,2024.2.1,59.71156757300202,2026-02-10 20h23.20.374846 +0000,
,,"(600, 398)",Objects_Dataset/battery.jpg,"(300, 188)","(300, -200)",Incongruent,Objects_Dataset/luggage_carrier_cart.jpg,"(214, 350)","(300, 200)",,,2.3,14,14,0,,,,,,7,Scenes_Dataset/sky_A.jpg,old,left,down,None,None,z,0.32139568499769666,None,,,,,0,14,14,6,142.99418332700225,,,,,,,,,,,,,,,,,,,,,,,142.98625960500067,142.99418332700225,145.23988044100042,145.4950503580003,145.3061419500009,145.4730690610013,,,,,,,,,,,,,,,,,,,,,,145.48635799900148,145.4950503580003,145.4950503580003,147.97582959300053,147.97582959300053,147.97582959300053,148.30304634800268,None,None,z,0.32139568499769666,None,,,,teste_1002_5,001,2026-02-10_20h23.01.939,Full_PT,2024.2.1,59.71156757300202,2026-02-10 20h23.20.374846 +0000,
,,"(600, 450)",Objects_Dataset/feeding_bottle.jpg,"(300, 295)","(300, -200)",Congruent,Objects_Dataset/mobile_baby.jpg,"(350, 263)","(300, 200)",,,2.1,15,15,0,,,,,,3,Scenes_Dataset/nursery_A.jpg,old,left,down,None,None,c,0.4438714179996168,None,,,,,0,15,15,2,148.31092994200299,,,,,,,,,,,,,,,,,,,,,,,148.30330975700053,148.31092994200299,150.55705156800104,150.8137106580034,150.42361463900306,150.7903899360026,,,,,,,,,,,,,,,,,,,,,,150.80502774800334,150.8137106580034,150.8137106580034,153.29324220800117,153.29324220800117,153.29324220800117,153.75540679900223,None,None,c,0.4438714179996168,None,,,,teste_1002_5,001,2026-02-10_20h23.01.939,Full_PT,2024.2.1,59.71156757300202,2026-02-10 20h23.20.374846 +0000,
,,"(600, 450)",Objects_Dataset/set_square.jpg,"(300, 182)","(300, 200)",Congruent,Objects_Dataset/drawing_compass.jpg,"(111, 300)","(300, -200)",,,2.15,16,16,0,,,,,,56,Scenes_Dataset/classroom_A.jpg,old,left,up,None,None,c,0.7561022919981042,None,,,,,0,16,16,55,153.76225067500127,,,,,,,,,,,,,,,,,,,,,,,153.7557375510005,153.76225067500127,156.00798638800188,156.2619571960022,155.92460008600028,156.24156512199988,,,,,,,,,,,,,,,,,,,,,,156.25351924200004,156.2619571960022,156.2619571960022,158.7571276000017,158.7571276000017,158.7571276000017,159.52048815900343,None,None,c,0.7561022919981042,None,,,,teste_1002_5,001,2026-02-10_20h23.01.939,Full_PT,2024.2.1,59.71156757300202,2026-02-10 20h23.20.374846 +0000,
,,"(600, 400)",Objects_Dataset/miners_cap.jpg,"(300, 300)","(300, -200)",Incongruent,Objects_Dataset/juggling_balls.jpg,"(350, 197)","(300, 200)",,,2.45,17,17,0,,,,,,10,Scenes_Dataset/clinic_A.jpg,old,left,down,None,None,z,1.0978338690001692,None,,,,,0,17,17,9,159.52890720600044,,,,,,,,,,,,,,,,,,,,,,,159.52088895999987,159.52890720600044,161.77495822700075,162.03166996100117,161.99155758900088,162.00890657200216,,,,,,,,,,,,,,,,,,,,,,162.02299330500318,162.03166996100117,162.03166996100117,164.51124613200227,164.51124613200227,164.51124613200227,165.6241031310019,None,None,z,1.0978338690001692,None,,,,teste_1002_5,001,2026-02-10_20h23.01.939,Full_PT,2024.2.1,59.71156757300202,2026-02-10 20h23.20.374846 +0000,
,,"(600, 338)",Objects_Dataset/suitcase.jpg,"(226, 350)","(300, -200)",Congruent,Objects_Dataset/luggage_cart.jpg,"(232, 300)","(300, 200)",,,2,18,18,0,,,,,,1,Scenes_Dataset/airport_A.jpg,old,left,down,None,None,c,0.2923497510018933,None,,,,,0,18,18,0,165.63096510300238,,,,,,,,,,,,,,,,,,,,,,,165.62442798700067,165.63096510300238,167.87627620600324,168.13079313500202,167.6426446330006,168.10962396500327,,,,,,,,,,,,,,,,,,,,,,168.1223353960013,168.13079313500202,168.13079313500202,170.61275158500212,170.61275158500212,170.61275158500212,170.92309385000044,None,None,c,0.2923497510018933,None,,,,teste_1002_5,001,2026-02-10_20h23.01.939,Full_PT,2024.2.1,59.71156757300202,2026-02-10 20h23.20.374846 +0000,
,,"(600, 450)",Objects_Dataset/swiss_army_knife.jpg,"(300, 214)","(300, 200)",Incongruent,Objects_Dataset/padlock.jpg,"(300, 153)","(300, -200)",,,2.2,19,19,0,,,,,,57,Scenes_Dataset/waiting_room_A.jpg,old,left,up,None,None,z,0.5437075170011667,None,,,,,0,19,19,56,170.9298685160029,,,,,,,,,,,,,,,,,,,,,,,170.92339102900223,170.9298685160029,173.17706763200113,173.43341871600205,173.1437353350011,173.41085992700027,,,,,,,,,,,,,,,,,,,,,,173.42479367300257,173.43341871600205,173.43341871600205,175.91337482200106,175.91337482200106,175.91337482200106,176.47504733900132,None,None,z,0.5437075170011667,None,,,,teste_1002_5,001,2026-02-10_20h23.01.939,Full_PT,2024.2.1,59.71156757300202,2026-02-10 20h23.20.374846 +0000,
,,"(600, 421)",Objects_Dataset/clown_nose.jpg,"(300, 142)","(300, -200)",Congruent,Objects_Dataset/unicycle.jpg,"(159, 300)","(300, 200)",,,2.35,20,20,0,,,,,,8,Scenes_Dataset/circus_A.jpg,old,left,down,None,None,c,1.2573787239998637,None,,,,,0,20,20,7,176.48195273500096,,,,,,,,,,,,,,,,,,,,,,,176.47537537200333,176.48195273500096,178.7280492150021,178.9841055220022,178.84455415699995,178.96146522700292,,,,,,,,,,,,,,,,,,,,,,178.9755422360031,178.9841055220022,178.9841055220022,181.46372902200164,181.46372902200164,181.46372902200164,182.73946689700097,None,None,c,1.2573787239998637,None,,,,teste_1002_5,001,2026-02-10_20h23.01.939,Full_PT,2024.2.1,59.71156757300202,2026-02-10 20h23.20.374846 +0000,
,,"(600, 337)",Objects_Dataset/wine_cork.jpg,"(250, 163)","(300, 200)",Incongruent,Objects_Dataset/bible.jpg,"(300, 248)","(300, -200)",,,3,21,21,0,,,,,,47,Scenes_Dataset/playground_A.jpg,old,left,up,None,None,z,1.977691591000621,None,,,,,0,21,21,46,182.74641966000127,,,,,,,,,,,,,,,,,,,,,,,182.73985463999998,182.74641966000127,184.99537427700125,185.24566238700208,185.74946853100118,185.72925478400066,,,,,,,,,,,,,,,,,,,,,,185.74106570500226,185.74946853100118,185.74946853100118,188.23139840800286,188.23139840800286,188.23139840800286,190.22516142099994,None,None,z,1.977691591000621,None,,,,teste_1002_5,001,2026-02-10_20h23.01.939,Full_PT,2024.2.1,59.71156757300202,2026-02-10 20h23.20.374846 +0000,
,,"(600, 402)",Objects_Dataset/eskimo_coat.jpg,"(300, 300)","(300, 200)",Incongruent,Objects_Dataset/brown_adhesive_tape.jpg,"(250, 190)","(300, -200)",,,2.3,22,22,0,,,,,,59,Scenes_Dataset/savannah_A.jpg,old,left,up,None,None,z,2.0409506510004576,None,,,,,0,22,22,58,190.2320829010023,,,,,,,,,,,,,,,,,,,,,,,190.2255471790013,190.2320829010023,192.47997343800307,192.73660698800086,192.54653857400262,192.71353185200132,,,,,,,,,,,,,,,,,,,,,,192.7279285350014,192.73660698800086,192.73660698800086,195.21613502700347,195.21613502700347,195.21613502700347,197.27656013100204,None,None,z,2.0409506510004576,None,,,,teste_1002_5,001,2026-02-10_20h23.01.939,Full_PT,2024.2.1,59.71156757300202,2026-02-10 20h23.20.374846 +0000,
,,"(600, 399)",Objects_Dataset/mannequin.jpg,"(340, 400)","(300, -200)",Incongruent,Objects_Dataset/ballet_shoe.jpg,"(300, 300)","(300, 200)",,,3.15,23,23,0,,,,,,24,Scenes_Dataset/vegetable_garden_A.jpg,old,left,down,None,None,z,0.2750541860004887,None,,,,,0,23,23,23,197.28345664600056,,,,,,,,,,,,,,,,,,,,,,,197.27689885600194,197.28345664600056,199.53091758800292,199.7809693650015,200.45563112600212,200.43145249900044,,,,,,,,,,,,,,,,,,,,,,200.44678000600106,200.45563112600212,200.45563112600212,202.9340512790004,202.9340512790004,202.9340512790004,203.22772856100346,None,None,z,0.2750541860004887,None,,,,teste_1002_5,001,2026-02-10_20h23.01.939,Full_PT,2024.2.1,59.71156757300202,2026-02-10 20h23.20.374846 +0000,
,,"(600, 400)",Objects_Dataset/pipette.jpg,"(300, 221)","(300, 200)",Congruent,Objects_Dataset/microscope.jpg,"(250, 300)","(300, -200)",,,2.3,24,24,0,,,,,,33,Scenes_Dataset/laboratory_A.jpg,old,left,up,None,None,c,1.8075831339992874,None,,,,,0,24,24,32,203.23466508800266,,,,,,,,,,,,,,,,,,,,,,,203.22807051400014,203.23466508800266,205.4818808529999,205.7381235540015,205.54859907500213,205.71545200700348,,,,,,,,,,,,,,,,,,,,,,205.72963227000218,205.7381235540015,205.7381235540015,208.21762298400063,208.21762298400063,208.21762298400063,210.03212418900148,None,None,c,1.8075831339992874,None,,,,teste_1002_5,001,2026-02-10_20h23.01.939,Full_PT,2024.2.1,59.71156757300202,2026-02-10 20h23.20.374846 +0000,
,,"(600, 397)",Objects_Dataset/disabled_signal.jpg,"(350, 350)","(300, 200)",Congruent,Objects_Dataset/barrier.jpg,"(300, 300)","(300, -200)",,,2.95,25,25,0,,,,,,46,Scenes_Dataset/parking_lot_A.jpg,old,left,up,None,None,c,1.245874026997626,None,,,,,0,25,25,45,210.0403847230009,,,,,,,,,,,,,,,,,,,,,,,210.03245203700135,210.0403847230009,212.28270830800102,212.53279654400103,213.00621013800264,212.98318983100035,,,,,,,,,,,,,,,,,,,,,,212.99745987200004,213.00621013800264,213.00621013800264,215.49922027499997,215.49922027499997,215.49922027499997,216.75037091200284,None,None,c,1.245874026997626,None,,,,teste_1002_5,001,2026-02-10_20h23.01.939,Full_PT,2024.2.1,59.71156757300202,2026-02-10 20h23.20.374846 +0000,
,,"(600, 400)",Objects_Dataset/dentist_mirror.jpg,"(300, 300)","(300, -200)",Congruent,Objects_Dataset/surgical_mask.jpg,"(300, 300)","(300, 200)",,,2.6,26,26,0,,,,,,13,Scenes_Dataset/dentist_A.jpg,old,left,down,None,None,c,0.3240859229990747,None,,,,,0,26,26,12,216.7658849440013,,,,,,,,,,,,,,,,,,,,,,,216.7506334910031,216.7658849440013,219.0002157980016,219.2501475800018,219.37262535100308,219.35058392700012,,,,,,,,,,,,,,,,,,,,,,219.3640146329999,219.37262535100308,219.37262535100308,221.85300769600144,221.85300769600144,221.85300769600144,222.19363519400213,None,None,c,0.3240859229990747,None,,,,teste_1002_5,001,2026-02-10_20h23.01.939,Full_PT,2024.2.1,59.71156757300202,2026-02-10 20h23.20.374846 +0000,
,,"(600, 446)",Objects_Dataset/saline.jpg,"(300, 225)","(300, 200)",Incongruent,Objects_Dataset/soap_dispenser.jpg,"(300, 300)","(300, -200)",,,2.2,27,27,0,,,,,,31,Scenes_Dataset/garden_A.jpg,old,left,up,None,None,z,0.23792991699883714,None,,,,,0,27,27,30,222.21571912700165,,,,,,,,,,,,,,,,,,,,,,,222.19396623000284,222.21571912700165,224.451163042002,224.70934815200235,224.4179208860005,224.68482680500165,,,,,,,,,,,,,,,,,,,,,,224.70065932000216,224.70934815200235,224.70934815200235,227.18716501200106,227.18716501200106,227.18716501200106,227.4408795140007,None,None,z,0.23792991699883714,None,,,,teste_1002_5,001,2026-02-10_20h23.01.939,Full_PT,2024.2.1,59.71156757300202,2026-02-10 20h23.20.374846 +0000,
,,"(600, 399)",Objects_Dataset/basketball.jpg,"(282, 300)","(300, -200)",Congruent,Objects_Dataset/whistle.jpg,"(200, 151)","(300, 200)",,,2.15,28,28,0,,,,,,4,Scenes_Dataset/basketball_field_A.jpg,old,left,down,None,None,c,1.5793481610016897,None,,,,,0,28,28,3,227.45164617500268,,,,,,,,,,,,,,,,,,,,,,,227.44133901100213,227.45164617500268,229.70203138800207,229.95835223800168,229.60180271100035,229.93573686400123,,,,,,,,,,,,,,,,,,,,,,229.94971377300317,229.95835223800168,229.95835223800168,232.43790039000305,232.43790039000305,232.43790039000305,234.01907313800257,None,None,c,1.5793481610016897,None,,,,teste_1002_5,001,2026-02-10_20h23.01.939,Full_PT,2024.2.1,59.71156757300202,2026-02-10 20h23.20.374846 +0000,
,,"(600, 450)",Objects_Dataset/horseshoe.jpg,"(300, 296)","(300, -200)",Congruent,Objects_Dataset/saddle.jpg,"(300, 199)","(300, 200)",,,2.8,29,29,0,,,,,,17,Scenes_Dataset/stable_A.jpg,old,left,down,None,None,c,2.0142847479983175,None,,,,,0,29,29,16,234.027183522001,,,,,,,,,,,,,,,,,,,,,,,234.0193666890009,234.027183522001,236.26946854500056,236.5194864940022,236.84465075200205,236.8198428930009,,,,,,,,,,,,,,,,,,,,,,236.83586755700162,236.84465075200205,236.84465075200205,239.32279437800025,239.32279437800025,239.32279437800025,241.353184607,None,None,c,2.0142847479983175,None,,,,teste_1002_5,001,2026-02-10_20h23.01.939,Full_PT,2024.2.1,59.71156757300202,2026-02-10 20h23.20.374846 +0000,
,,"(600, 375)",Objects_Dataset/cactus.jpg,"(300, 248)","(300, -200)",Congruent,Objects_Dataset/turban.jpg,"(300, 300)","(300, 200)",,,2.65,30,30,0,,,,,,14,Scenes_Dataset/desert_A.jpg,old,left,down,None,None,c,3.7504128870023123,None,,,,,0,30,30,13,241.36009594500138,,,,,,,,,,,,,,,,,,,,,,,241.35351362100118,241.36009594500138,243.60396054100056,243.85398204600278,244.02739074400233,244.0044264490025,,,,,,,,,,,,,,,,,,,,,,244.01879793900298,244.02739074400233,244.02739074400233,246.50667128200075,246.50667128200075,246.50667128200075,250.27015362600287,None,None,c,3.7504128870023123,None,,,,teste_1002_5,001,2026-02-10_20h23.01.939,Full_PT,2024.2.1,59.71156757300202,2026-02-10 20h23.20.374846 +0000,
,,"(600, 450)",Objects_Dataset/locker.jpg,"(264, 400)","(300, -200)",Incongruent,Objects_Dataset/domino_piece.jpg,"(200, 174)","(300, 200)",,,2.95,31,31,0,,,,,,20,Scenes_Dataset/road_A.jpg,old,left,down,None,None,c,15.684478933999344,None,,,,,0,31,31,19,250.27707405800174,,,,,,,,,,,,,,,,,,,,,,,250.27053417700154,250.27707405800174,252.5217344320008,252.77193771300153,253.24559231200328,253.22231404600097,,,,,,,,,,,,,,,,,,,,,,253.23683995100146,253.24559231200328,253.24559231200328,255.72459930800323,255.72459930800323,255.72459930800323,271.42197973000293,None,None,c,15.684478933999344,None,,,,teste_1002_5,001,2026-02-10_20h23.01.939,Full_PT,2024.2.1,59.71156757300202,2026-02-10 20h23.20.374846 +0000,
,,"(600, 399)",Objects_Dataset/belt.jpg,"(200, 162)","(300, 200)",Incongruent,Objects_Dataset/watch.jpg,"(300, 273)","(300, -200)",,,2.45,32,32,0,,,,,,36,Scenes_Dataset/toy_store_A.jpg,old,left,up,None,None,z,0.3422573880015989,None,,,,,0,32,32,35,271.4288112009999,,,,,,,,,,,,,,,,,,,,,,,271.422308297002,271.4288112009999,273.6748653270006,273.9317731560004,273.8915922470005,273.9084670810007,,,,,,,,,,,,,,,,,,,,,,273.92321522100247,273.9317731560004,273.9317731560004,276.41082406200076,276.41082406200076,276.41082406200076,276.7583619080033,None,None,z,0.3422573880015989,None,,,,teste_1002_5,001,2026-02-10_20h23.01.939,Full_PT,2024.2.1,59.71156757300202,2026-02-10 20h23.20.374846 +0000,
,,"(600, 338)",Objects_Dataset/watercolors.jpg,"(300, 231)","(300, 200)",Congruent,Objects_Dataset/plasticine.jpg,"(250, 167)","(300, -200)",,,2.25,33,33,0,,,,,,32,Scenes_Dataset/kindergarten_A.jpg,old,left,up,None,None,c,0.3520172620010271,None,,,,,0,33,33,31,276.7667428720015,,,,,,,,,,,,,,,,,,,,,,,276.7587009980016,276.7667428720015,279.00837184600095,279.26362402200175,279.0249410430006,279.2426838010033,,,,,,,,,,,,,,,,,,,,,,279.2549174830019,279.26362402200175,279.26362402200175,281.74504788200284,281.74504788200284,281.74504788200284,282.10846912800116,None,None,c,0.3520172620010271,None,,,,teste_1002_5,001,2026-02-10_20h23.01.939,Full_PT,2024.2.1,59.71156757300202,2026-02-10 20h23.20.374846 +0000,
,,"(600, 389)",Objects_Dataset/car_key.jpg,"(300, 125)","(300, -200)",Congruent,Objects_Dataset/car_freshener.jpg,"(277, 300)","(300, 200)",,,2.1,34,34,0,,,,,,29,Scenes_Dataset/car_interior_A.jpg,old,left,down,None,None,c,0.5451612360011495,None,,,,,0,34,34,28,282.11542090700095,,,,,,,,,,,,,,,,,,,,,,,282.10880537900084,282.11542090700095,284.3597670449999,284.614185284001,284.2264399440028,284.593412895003,,,,,,,,,,,,,,,,,,,,,,284.60567061300026,284.614185284001,284.614185284001,287.0959292760017,287.0959292760017,287.0959292760017,287.658938777,None,None,c,0.5451612360011495,None,,,,teste_1002_5,001,2026-02-10_20h23.01.939,Full_PT,2024.2.1,59.71156757300202,2026-02-10 20h23.20.374846 +0000,
,,"(600, 450)",Objects_Dataset/desk_microphone.jpg,"(300, 300)","(300, -200)",Incongruent,Objects_Dataset/tennis_ball.jpg,"(200, 200)","(300, 200)",,,2.5,35,35,0,,,,,,11,Scenes_Dataset/kitchen_A.jpg,old,left,down,None,None,z,0.6016483160019561,None,,,,,0,35,35,10,287.66585322000174,,,,,,,,,,,,,,,,,,,,,,,287.6592727560019,287.66585322000174,289.9106440550022,290.1609572260022,290.18476392700177,290.16128750900316,,,,,,,,,,,,,,,,,,,,,,290.17601018700225,290.18476392700177,290.18476392700177,292.66344221000327,292.66344221000327,292.66344221000327,293.2773218170005,None,None,z,0.6016483160019561,None,,,,teste_1002_5,001,2026-02-10_20h23.01.939,Full_PT,2024.2.1,59.71156757300202,2026-02-10 20h23.20.374846 +0000,
,,"(600, 370)",Objects_Dataset/scissors.jpg,"(300, 145)","(300, 200)",Congruent,Objects_Dataset/stapler.jpg,"(250, 178)","(300, -200)",,,2.8,36,36,0,,,,,,43,Scenes_Dataset/stationary_store_A.jpg,old,left,up,None,None,c,0.6124568539999018,None,,,,,0,36,36,42,293.2842435780003,,,,,,,,,,,,,,,,,,,,,,,293.277651761,293.2842435780003,295.52823088300283,295.7779344160008,296.0991634510028,296.0783520920013,,,,,,,,,,,,,,,,,,,,,,296.09071275300084,296.0991634510028,296.0991634510028,298.58062796500235,298.58062796500235,298.58062796500235,299.2103207780019,None,None,c,0.6124568539999018,None,,,,teste_1002_5,001,2026-02-10_20h23.01.939,Full_PT,2024.2.1,59.71156757300202,2026-02-10 20h23.20.374846 +0000,
,,"(600, 480)",Objects_Dataset/chalice.jpg,"(192, 300)","(300, -200)",Incongruent,Objects_Dataset/paint_roller.jpg,"(262, 300)","(300, 200)",,,2.05,37,37,0,,,,,,28,Scenes_Dataset/airplane_interior_A.jpg,old,left,down,None,None,z,0.7548474110008101,None,,,,,0,37,37,27,299.21721327900013,,,,,,,,,,,,,,,,,,,,,,,299.21065338300104,299.21721327900013,301.46225737700297,301.72217688800083,301.27893023900106,301.69595025200033,,,,,,,,,,,,,,,,,,,,,,301.7135304020012,301.72217688800083,301.72217688800083,304.1983601990032,304.1983601990032,304.1983601990032,304.9600833980003,None,None,z,0.7548474110008101,None,,,,teste_1002_5,001,2026-02-10_20h23.01.939,Full_PT,2024.2.1,59.71156757300202,2026-02-10 20h23.20.374846 +0000,
,,"(600, 400)",Objects_Dataset/plate.jpg,"(300, 117)","(300, 200)",Congruent,Objects_Dataset/fork.jpg,"(300, 180)","(300, -200)",,,2,38,38,0,,,,,,53,Scenes_Dataset/restaurant_A.jpg,old,left,up,None,None,c,1.1990938290000486,None,,,,,0,38,38,52,304.9683545480002,,,,,,,,,,,,,,,,,,,,,,,304.96040901700326,304.9683545480002,307.2125667520013,307.46445923000283,306.9798822260018,307.44605811800284,,,,,,,,,,,,,,,,,,,,,,307.45540325600086,307.46445923000283,307.46445923000283,309.94604225200237,309.94604225200237,309.94604225200237,311.16306901900316,None,None,c,1.1990938290000486,None,,,,teste_1002_5,001,2026-02-10_20h23.01.939,Full_PT,2024.2.1,59.71156757300202,2026-02-10 20h23.20.374846 +0000,
,,"(600, 450)",Objects_Dataset/stopwatch.jpg,"(184, 250)","(300, 200)",Congruent,Objects_Dataset/athletics_barrier.jpg,"(350, 280)","(300, -200)",,,3.1,39,39,0,,,,,,49,Scenes_Dataset/athletics_track_A.jpg,old,left,up,None,None,c,0.3463390180004353,None,,,,,0,39,39,48,311.1699611900003,,,,,,,,,,,,,,,,,,,,,,,311.16339440900265,311.1699611900003,313.41386691700245,313.6640668979999,314.2871156250003,314.26449447600316,,,,,,,,,,,,,,,,,,,,,,314.2784495270025,314.2871156250003,314.2871156250003,316.76674163700227,316.76674163700227,316.76674163700227,317.1298187370012,None,None,c,0.3463390180004353,None,,,,teste_1002_5,001,2026-02-10_20h23.01.939,Full_PT,2024.2.1,59.71156757300202,2026-02-10 20h23.20.374846 +0000,
,,"(600, 450)",Objects_Dataset/sandal.jpg,"(300, 225)","(300, -200)",Incongruent,Objects_Dataset/parking_meter.jpg,"(200, 300)","(300, 200)",,,3.2,40,40,0,,,,,,25,Scenes_Dataset/igloo_A.jpg,old,left,down,None,None,z,0.6706829780014232,None,,,,,0,40,40,24,317.136638027001,,,,,,,,,,,,,,,,,,,,,,,317.1301483410025,317.136638027001,319.3818023590029,319.6314428780024,320.35201951800263,320.33188196300034,,,,,,,,,,,,,,,,,,,,,,320.3435666940022,320.35201951800263,320.35201951800263,322.8343903990026,322.8343903990026,322.8343903990026,323.5139012489999,None,None,z,0.6706829780014232,None,,,,teste_1002_5,001,2026-02-10_20h23.01.939,Full_PT,2024.2.1,59.71156757300202,2026-02-10 20h23.20.374846 +0000,
,,"(600, 400)",Objects_Dataset/trash_can.jpg,"(225, 300)","(300, 200)",Incongruent,Objects_Dataset/plastic_bag.jpg,"(350, 197)","(300, -200)",,,2.05,41,41,0,,,,,,54,Scenes_Dataset/closet_A.jpg,old,left,up,None,None,z,0.35529870399841457,None,,,,,0,41,41,53,323.5217377330009,,,,,,,,,,,,,,,,,,,,,,,323.5141645520016,323.5217377330009,325.765806419,326.0226389760028,325.58269488800215,325.99934910900265,,,,,,,,,,,,,,,,,,,,,,326.01395695300016,326.0226389760028,326.0226389760028,328.5019045650006,328.5019045650006,328.5019045650006,328.86416342600205,None,None,z,0.35529870399841457,None,,,,teste_1002_5,001,2026-02-10_20h23.01.939,Full_PT,2024.2.1,59.71156757300202,2026-02-10 20h23.20.374846 +0000,
,,"(600, 450)",Objects_Dataset/beach_umbrella.jpg,"(266, 300)","(300, 200)",Congruent,Objects_Dataset/whelk.jpg,"(250, 143)","(300, -200)",,,3.15,42,42,0,,,,,,50,Scenes_Dataset/beach_A.jpg,old,left,up,None,None,c,0.5377484810014721,None,,,,,0,42,42,49,328.87246851000236,,,,,,,,,,,,,,,,,,,,,,,328.8644815840016,328.87246851000236,331.1163627160022,331.36643651800114,332.0400908970005,332.01691515100174,,,,,,,,,,,,,,,,,,,,,,332.03141689100084,332.0400908970005,332.0400908970005,334.51948167700175,334.51948167700175,334.51948167700175,335.06431575300303,None,None,c,0.5377484810014721,None,,,,teste_1002_5,001,2026-02-10_20h23.01.939,Full_PT,2024.2.1,59.71156757300202,2026-02-10 20h23.20.374846 +0000,
,,"(600, 408)",Objects_Dataset/laundry_basket.jpg,"(300, 225)","(300, 200)",Congruent,Objects_Dataset/laundry_detergent.jpg,"(186, 264)","(300, -200)",,,2.35,43,43,0,,,,,,34,Scenes_Dataset/laundry_A.jpg,old,left,up,None,None,c,0.18242350600121426,None,,,,,0,43,43,33,335.0725208710028,,,,,,,,,,,,,,,,,,,,,,,335.06463380700006,335.0725208710028,337.3166983250012,337.57420611400084,337.434295973002,337.55097357900013,,,,,,,,,,,,,,,,,,,,,,337.5655994470035,337.57420611400084,337.57420611400084,340.0506995750002,340.0506995750002,340.0506995750002,340.235591415003,None,None,c,0.18242350600121426,None,,,,teste_1002_5,001,2026-02-10_20h23.01.939,Full_PT,2024.2.1,59.71156757300202,2026-02-10 20h23.20.374846 +0000,
,,"(600, 375)",Objects_Dataset/poker_chips.jpg,"(350, 119)","(300, -200)",Incongruent,Objects_Dataset/bathrobe.jpg,"(350, 350)","(300, 200)",,,3.05,44,44,0,,,,,,22,Scenes_Dataset/forest_A.jpg,old,left,down,None,None,z,0.6612316020000435,None,,,,,0,44,44,21,340.25069017200076,,,,,,,,,,,,,,,,,,,,,,,340.2358497580026,340.25069017200076,342.48463440800333,342.7345815880035,343.3019640590028,343.2845236450012,,,,,,,,,,,,,,,,,,,,,,343.29314694999994,343.3019640590028,343.3019640590028,345.787864291,345.787864291,345.787864291,346.46701964800013,None,None,z,0.6612316020000435,None,,,,teste_1002_5,001,2026-02-10_20h23.01.939,Full_PT,2024.2.1,59.71156757300202,2026-02-10 20h23.20.374846 +0000,
,,"(600, 450)",Objects_Dataset/surf_board.jpg,"(114, 350)","(300, 200)",Congruent,Objects_Dataset/surf_suit.jpg,"(256, 350)","(300, -200)",,,2.65,45,45,0,,,,,,40,Scenes_Dataset/waves.jpg,old,left,up,None,None,c,0.34740776599937817,None,,,,,0,45,45,39,346.4739256390021,,,,,,,,,,,,,,,,,,,,,,,346.46734830600326,346.4739256390021,348.7194055910004,348.96931901500284,349.14163714200185,349.11982099500165,,,,,,,,,,,,,,,,,,,,,,349.133190620003,349.14163714200185,349.14163714200185,351.6216802960007,351.6216802960007,351.6216802960007,351.9867017650031,None,None,c,0.34740776599937817,None,,,,teste_1002_5,001,2026-02-10_20h23.01.939,Full_PT,2024.2.1,59.71156757300202,2026-02-10 20h23.20.374846 +0000,
,,"(600, 434)",Objects_Dataset/watering_can.jpg,"(300, 272)","(300, -200)",Incongruent,Objects_Dataset/racket.jpg,"(300, 300)","(300, 200)",,,3.1,46,46,0,,,,,,23,Scenes_Dataset/art_gallery_A.jpg,old,left,down,None,None,z,0.4356868759969075,None,,,,,0,46,46,22,351.993659775002,,,,,,,,,,,,,,,,,,,,,,,351.987028106003,351.993659775002,354.23644172700006,354.4864192840032,355.1106773160027,355.0868986109999,,,,,,,,,,,,,,,,,,,,,,355.10179539800083,355.1106773160027,355.1106773160027,357.58939157200075,357.58939157200075,357.58939157200075,358.0363554820033,None,None,z,0.4356868759969075,None,,,,teste_1002_5,001,2026-02-10_20h23.01.939,Full_PT,2024.2.1,59.71156757300202,2026-02-10 20h23.20.374846 +0000,
,,"(600, 450)",Objects_Dataset/soap.jpg,"(300, 191)","(300, 200)",Congruent,Objects_Dataset/toothbrush.jpg,"(300, 215)","(300, -200)",,,2.35,47,47,0,,,,,,60,Scenes_Dataset/toilet_A.jpg,old,left,up,None,None,c,0.31361636699875817,None,,,,,0,47,47,59,358.04323735300204,,,,,,,,,,,,,,,,,,,,,,,358.0366817910035,358.04323735300204,360.28725366500294,360.54546883200237,360.4044698430007,360.5214416200033,,,,,,,,,,,,,,,,,,,,,,360.5367838910024,360.54546883200237,360.54546883200237,363.02347538899994,363.02347538899994,363.02347538899994,363.3531006700032,None,None,c,0.31361636699875817,None,,,,teste_1002_5,001,2026-02-10_20h23.01.939,Full_PT,2024.2.1,59.71156757300202,2026-02-10 20h23.20.374846 +0000,
,,"(600, 450)",Objects_Dataset/shield.jpg,"(199, 300)","(300, -200)",Congruent,Objects_Dataset/armor.jpg,"(270, 270)","(300, 200)",,,2.25,48,48,0,,,,,,6,Scenes_Dataset/castle_A.jpg,old,left,down,None,None,c,0.8677104169983068,None,,,,,0,48,48,5,363.3599224260033,,,,,,,,,,,,,,,,,,,,,,,363.35340045200064,363.3599224260033,365.6049181280032,365.8589266830022,365.6216841330024,365.8387119060026,,,,,,,,,,,,,,,,,,,,,,365.8505861830017,365.8589266830022,365.8589266830022,368.34136857200065,368.34136857200065,368.34136857200065,369.22148865000054,None,None,c,0.8677104169983068,None,,,,teste_1002_5,001,2026-02-10_20h23.01.939,Full_PT,2024.2.1,59.71156757300202,2026-02-10 20h23.20.374846 +0000,
,,"(600, 371)",Objects_Dataset/latex_gloves.jpg,"(300, 300)","(300, 200)",Incongruent,Objects_Dataset/gauze_pad.jpg,"(300, 206)","(300, -200)",,,2.25,49,49,0,,,,,,58,Scenes_Dataset/games_room_A.jpg,old,left,up,None,None,z,0.6035804700004519,None,,,,,0,49,49,57,369.22838688400225,,,,,,,,,,,,,,,,,,,,,,,369.22181712900056,369.22838688400225,371.47266569800195,371.729453138003,371.48936198500087,371.7063297450004,,,,,,,,,,,,,,,,,,,,,,371.72090979100176,371.729453138003,371.729453138003,374.205520022002,374.205520022002,374.205520022002,374.8249558770003,None,None,z,0.6035804700004519,None,,,,teste_1002_5,001,2026-02-10_20h23.01.939,Full_PT,2024.2.1,59.71156757300202,2026-02-10 20h23.20.374846 +0000,
,,"(600, 451)",Objects_Dataset/megaphone.jpg,"(300, 257)","(300, 200)",Incongruent,Objects_Dataset/water_bottle.jpg,"(350, 222)","(300, -200)",,,3.2,50,50,0,,,,,,51,Scenes_Dataset/hair_salon_A.jpg,old,left,up,None,None,z,1.0265595630007738,None,,,,,0,50,50,50,374.8390060660022,,,,,,,,,,,,,,,,,,,,,,,374.8252235250002,374.8390060660022,377.0901922580015,377.3401432999999,378.04568493400075,378.02375607400245,,,,,,,,,,,,,,,,,,,,,,378.0370362210015,378.04568493400075,378.04568493400075,380.5265301810032,380.5265301810032,380.5265301810032,381.57105657800275,None,None,z,1.0265595630007738,None,,,,teste_1002_5,001,2026-02-10_20h23.01.939,Full_PT,2024.2.1,59.71156757300202,2026-02-10 20h23.20.374846 +0000,
,,"(600, 450)",Objects_Dataset/diving_mask.jpg,"(300, 197)","(300, -200)",Congruent,Objects_Dataset/snorkeling_tube.jpg,"(251, 300)","(300, 200)",,,2.55,51,51,0,,,,,,12,Scenes_Dataset/underwater_A.jpg,old,left,down,None,None,c,0.38205044400092447,None,,,,,0,51,51,11,381.57782717400187,,,,,,,,,,,,,,,,,,,,,,,381.57137969700125,381.57782717400187,383.82449699100107,384.0745184200023,384.1471358270028,384.12479357900156,,,,,,,,,,,,,,,,,,,,,,384.1386422510004,384.1471358270028,384.1471358270028,386.62703025500014,386.62703025500014,386.62703025500014,387.021333187,None,None,c,0.38205044400092447,None,,,,teste_1002_5,001,2026-02-10_20h23.01.939,Full_PT,2024.2.1,59.71156757300202,2026-02-10 20h23.20.374846 +0000,
,,"(600, 424)",Objects_Dataset/mortar.jpg,"(273, 300)","(300, 200)",Incongruent,Objects_Dataset/light_switch.jpg,"(250, 250)","(300, -200)",,,2.4,52,52,0,,,,,,35,Scenes_Dataset/trash_A.jpg,old,left,up,None,None,z,0.30176135299916496,None,,,,,0,52,52,34,387.02800875899993,,,,,,,,,,,,,,,,,,,,,,,387.0216175400019,387.02800875899993,389.275212302,389.53209863600205,389.44186800900206,389.5089616110017,,,,,,,,,,,,,,,,,,,,,,389.52358310400086,389.53209863600205,389.53209863600205,392.01132229200084,392.01132229200084,392.01132229200084,392.3253548950015,None,None,z,0.30176135299916496,None,,,,teste_1002_5,001,2026-02-10_20h23.01.939,Full_PT,2024.2.1,59.71156757300202,2026-02-10 20h23.20.374846 +0000,
,,"(600, 415)",Objects_Dataset/hairdryer.jpg,"(250, 241)","(300, -200)",Incongruent,Objects_Dataset/hang_glider.jpg,"(450, 275)","(300, 200)",,,2.85,53,53,0,,,,,,18,Scenes_Dataset/train_station_A.jpg,old,left,down,None,None,c,1964.2823381310009,None,,,,,0,53,53,17,392.3321116360021,,,,,,,,,,,,,,,,,,,,,,,392.3256815470013,392.3321116360021,394.57609083400166,394.82612200600124,395.19915562400274,395.1764765090011,,,,,,,,,,,,,,,,,,,,,,395.19079202000285,395.19915562400274,395.19915562400274,397.6787439180007,397.6787439180007,397.6787439180007,2361.962788482,None,None,c,1964.2823381310009,None,,,,teste_1002_5,001,2026-02-10_20h23.01.939,Full_PT,2024.2.1,59.71156757300202,2026-02-10 20h23.20.374846 +0000,
,,"(600, 440)",Objects_Dataset/nail.jpg,"(300, 272)","(300, 200)",Congruent,Objects_Dataset/brick.jpg,"(300, 224)","(300, -200)",,,2.6,54,54,0,,,,,,39,Scenes_Dataset/construction_A.jpg,old,left,up,None,None,c,153.27876578699943,None,,,,,0,54,54,38,2361.970873864,,,,,,,,,,,,,,,,,,,,,,,2361.963087307002,2361.970873864,2364.2130134420004,2364.4628924120007,2364.587203324001,2364.5635550290026,,,,,,,,,,,,,,,,,,,,,,2364.578522388001,2364.587203324001,2364.587203324001,2367.0663404310035,2367.0663404310035,2367.0663404310035,2520.367275646,None,None,c,153.27876578699943,None,,,,teste_1002_5,001,2026-02-10_20h23.01.939,Full_PT,2024.2.1,59.71156757300202,2026-02-10 20h23.20.374846 +0000,
,,"(600, 379)",Objects_Dataset/swimming_arm_bands.jpg,"(300, 300)","(300, 200)",Incongruent,Objects_Dataset/thimble.jpg,"(124, 150)","(300, -200)",,,2.5,55,55,0,,,,,,37,Scenes_Dataset/mountain_A.jpg,old,left,up,None,None,z,0.7352583489991957,None,,,,,0,55,55,36,2520.374548887001,,,,,,,,,,,,,,,,,,,,,,,2520.3677338780035,2520.374548887001,2522.619711182,2522.8697881290027,2522.8984212250034,2522.870118627001,,,,,,,,,,,,,,,,,,,,,,2522.889241713001,2522.8984212250034,2522.8984212250034,2525.377853639002,2525.377853639002,2525.377853639002,2526.136391895001,None,None,z,0.7352583489991957,None,,,,teste_1002_5,001,2026-02-10_20h23.01.939,Full_PT,2024.2.1,59.71156757300202,2026-02-10 20h23.20.374846 +0000,
,,"(600, 375)",Objects_Dataset/defibrillator_paddles.jpg,"(350, 223)","(300, -200)",Incongruent,Objects_Dataset/pedestal_column.jpg,"(155, 300)","(300, 200)",,,2.2,56,56,0,,,,,,5,Scenes_Dataset/tree_house.jpg,old,left,down,None,None,z,2.6166794460004894,None,,,,,0,56,56,4,2526.1435783980014,,,,,,,,,,,,,,,,,,,,,,,2526.136842371001,2526.1435783980014,2528.3868759880024,2528.6482083070005,2528.3537441610024,2528.6206615890005,,,,,,,,,,,,,,,,,,,,,,2528.639047366003,2528.6482083070005,2528.6482083070005,2531.1284314560035,2531.1284314560035,2531.1284314560035,2533.759286806002,None,None,z,2.6166794460004894,None,,,,teste_1002_5,001,2026-02-10_20h23.01.939,Full_PT,2024.2.1,59.71156757300202,2026-02-10 20h23.20.374846 +0000,
,,"(600, 375)",Objects_Dataset/rolling_pin.jpg,"(300, 300)","(300, 200)",Incongruent,Objects_Dataset/tie.jpg,"(259, 300)","(300, -200)",,,2.55,57,57,0,,,,,,38,Scenes_Dataset/snow_A.jpg,old,left,up,None,None,c,0.7561778700001014,None,,,,,0,57,57,37,2533.7712673500027,,,,,,,,,,,,,,,,,,,,,,,2533.759745792002,2533.7712673500027,2536.0213395550018,2536.2715725260023,2536.3297584570028,2536.3051748200014,,,,,,,,,,,,,,,,,,,,,,2536.3207549720028,2536.3297584570028,2536.3297584570028,2538.8129303780006,2538.8129303780006,2538.8129303780006,2539.593116252003,None,None,c,0.7561778700001014,None,,,,teste_1002_5,001,2026-02-10_20h23.01.939,Full_PT,2024.2.1,59.71156757300202,2026-02-10 20h23.20.374846 +0000,
,,"(600, 450)",Objects_Dataset/handcuffs.jpg,"(300, 183)","(300, -200)",Incongruent,Objects_Dataset/staple_puller.jpg,"(200, 200)","(300, 200)",,,2.7,58,58,0,,,,,,15,Scenes_Dataset/balcony.jpg,old,left,down,None,None,z,4.36439744299787,None,,,,,0,58,58,14,2539.605511605001,,,,,,,,,,,,,,,,,,,,,,,2539.5935758330015,2539.605511605001,2541.8556866080035,2542.105847158,2542.3181980400004,2542.289461735003,,,,,,,,,,,,,,,,,,,,,,2542.3089826760006,2542.3181980400004,2542.3181980400004,2544.796698749,2544.796698749,2544.796698749,2549.165273947001,None,None,z,4.36439744299787,None,,,,teste_1002_5,001,2026-02-10_20h23.01.939,Full_PT,2024.2.1,59.71156757300202,2026-02-10 20h23.20.374846 +0000,
,,"(600, 420)",Objects_Dataset/cork_showcase.jpg,"(300, 255)","(300, -200)",Incongruent,Objects_Dataset/suit_vest.jpg,"(194, 300)","(300, 200)",,,2,59,59,0,,,,,,27,Scenes_Dataset/island_A.jpg,old,left,down,None,None,z,0.9003468359987892,None,,,,,0,59,59,26,2549.1751642540003,,,,,,,,,,,,,,,,,,,,,,,2549.165748499003,2549.1751642540003,2551.423357507003,2551.684362570002,2551.1899427470016,2551.656820274002,,,,,,,,,,,,,,,,,,,,,,2551.6753031880035,2551.684362570002,2551.684362570002,2554.164764516001,2554.164764516001,2554.164764516001,2555.0841566530034,None,None,z,0.9003468359987892,None,,,,teste_1002_5,001,2026-02-10_20h23.01.939,Full_PT,2024.2.1,59.71156757300202,2026-02-10 20h23.20.374846 +0000,
,,,,,,,,,,,,,,,,,,,,,,,,,,,,,,,,,,,,,,,,,,,,,,,,,,,,,,,,,,,,,,,,,,,,,,,,,,,,,,,,,,,,,,,,,,,,,,,,,,,,,2555.084454467,2555.093536968001,2555.093536968001,,,,,,,,
