Index,scene_encode,scene_size,object_encode,object_size,target_pos,condition_encode,lure,lure_size,lure_pos,ex_new,new_scene_size,jitter_ITI,thisN,thisTrialN,thisRepN,slider_example.response,slider_example.rt,key_ex_rate.keys,key_ex_rate.rt,key_ex_rate.duration,order_pairs,scene,condition_old,correct_key_old,correct_key_AFC,slider_cong.response,slider_cong.rt,key_rate.keys,key_rate.rt,key_rate.duration,exemplo_PAL.thisRepN,exemplo_PAL.thisTrialN,exemplo_PAL.thisN,exemplo_PAL.thisIndex,trial_encode.thisRepN,trial_encode.thisTrialN,trial_encode.thisN,trial_encode.thisIndex,thisRow.t,notes,Welcome.started,text_hi.started,key_welcome.started,Welcome.stopped,key_welcome.keys,key_welcome.rt,key_welcome.duration,Explanation_PAL.started,text_Explain_PAL.started,key_explain_PAL.started,Explanation_PAL.stopped,key_explain_PAL.keys,key_explain_PAL.rt,key_explain_PAL.duration,Explain_Rating.started,text_explain_rate.started,key_explain_rate.started,Explain_Rating.stopped,key_explain_rate.keys,key_explain_rate.rt,key_explain_rate.duration,blank.started,image_blank.started,cross_25.started,cross_25.stopped,image_blank.stopped,blank.stopped,Example_PAL.started,image_ex_scene.started,image_ex_object.started,slider_example.started,text_example.started,key_ex_rate.started,Example_PAL.stopped,exemplo_PAL.slider_example.response,exemplo_PAL.slider_example.rt,exemplo_PAL.key_ex_rate.keys,exemplo_PAL.key_ex_rate.rt,exemplo_PAL.key_ex_rate.duration,Start_PAL.started,text_end_ex.started,text_start_PAL.started,key_start_PAL.started,text_end_ex.stopped,Start_PAL.stopped,key_start_PAL.keys,key_start_PAL.rt,key_start_PAL.duration,Encode.started,image_scene_encode.started,image_object_encode.started,text_rating.started,slider_cong.started,key_rate.started,Encode.stopped,trial_encode.slider_cong.response,trial_encode.slider_cong.rt,trial_encode.key_rate.keys,trial_encode.key_rate.rt,trial_encode.key_rate.duration,Pause_1.started,text_pausa1.started,key_Start_Cog.started,Pause_1.stopped,key_Start_Cog.keys,key_Start_Cog.rt,key_Start_Cog.duration,Explanation_GoNo.started,text_explanation_GoNo.started,text_explanation_GoNo.stopped,Explanation_GoNo.stopped,participant,session,date,expName,psychopyVersion,frameRate,expStart,
,,,,,,,,,,,,,,,,,,,,,,,,,,,,,,,,,,,,,,,,,0.03082855799993922,0.046275133000108326,0.046275133000108326,1.4593124479999915,space,1.2533430060000228,None,,,,,,,,,,,,,,,,,,,,,,,,,,,,,,,,,,,,,,,,,,,,,,,,,,,,,,,,,,,,,,,,,test_1102_0,001,2026-02-11_10h55.49.241,Full_PT,2024.2.1,59.90682739061873,2026-02-11 10h56.09.868426 +0000,
,,,,,,,,,,,,,,,,,,,,,,,,,,,,,,,,,,,,,,,,,,,,,,,,1.4593602939999073,1.4703523989999212,3.469751035999934,23.956877854999902,space,20.469770611000058,None,,,,,,,,,,,,,,,,,,,,,,,,,,,,,,,,,,,,,,,,,,,,,,,,,,,,,,,,,,test_1102_0,001,2026-02-11_10h55.49.241,Full_PT,2024.2.1,59.90682739061873,2026-02-11 10h56.09.868426 +0000,
,,,,,,,,,,,,,,,,,,,,,,,,,,,,,,,,,,,,,,,,,,,,,,,,,,,,,,,23.956950921000043,23.972470866000094,25.955964071999915,35.77501890799999,space,9.815652140000111,None,,,,,,,,,,,,,,,,,,,,,,,,,,,,,,,,,,,,,,,,,,,,,,,,,,,test_1102_0,001,2026-02-11_10h55.49.241,Full_PT,2024.2.1,59.90682739061873,2026-02-11 10h56.09.868426 +0000,
2,Scenes_Dataset/museum_A.jpg,"(600, 337)",Objects_Dataset/picnic_towel.jpg,"(300, 300)","(250, 200)",incongruent,Objects_Dataset/fluorescent_bracelets.jpg,"(300, 300)","(250, -200)",Scenes_Dataset/boat_interior_A.jpg,"(600, 400)",2.5,0,0,0,None,None,z,46.86367180599996,None,,,,,,,,,,,0,0,0,1,,,,,35.7973057480001,,,,,,,,,,,,,,,,,,,,,,,35.789678847999994,35.7973057480001,38.02942368599997,38.29141419200005,38.328315730999975,38.29175771600012,38.314470104000065,38.328315730999975,38.328315730999975,40.81190986899992,40.81190986899992,40.81190986899992,87.67978949100007,None,None,z,46.86367180599996,None,,,,,,,,,,,,,,,,,,,,,,,,,,,,,,,,,test_1102_0,001,2026-02-11_10h55.49.241,Full_PT,2024.2.1,59.90682739061873,2026-02-11 10h56.09.868426 +0000,
1,Scenes_Dataset/movie_theater_A.jpg,"(600, 364)",Objects_Dataset/movie_reels.jpg,"(350, 268)","(250, -200)",congruent,Objects_Dataset/3d_glasses.jpg,"(300, 300)","(250, 200)",Scenes_Dataset/building_entrance_A.jpg,"(600, 400)",2,1,1,0,None,None,c,2.0943310689999635,None,,,,,,,,,,,0,1,1,0,,,,,87.68788685100003,,,,,,,,,,,,,,,,,,,,,,,87.68007564599998,87.68788685100003,89.93201611900008,90.19178414399994,89.69930761199998,90.16584374500007,90.18315899899994,90.19178414399994,90.19178414399994,92.66914206299998,92.66914206299998,92.66914206299998,94.77298930999996,None,None,c,2.0943310689999635,None,,,,,,,,,,,,,,,,,,,,,,,,,,,,,,,,,test_1102_0,001,2026-02-11_10h55.49.241,Full_PT,2024.2.1,59.90682739061873,2026-02-11 10h56.09.868426 +0000,
,,,,,,,,,,,,,,,,,,,,,,,,,,,,,,,,,,,,,,,,,,,,,,,,,,,,,,,,,,,,,,,,,,,,,,,,,,,,,,,,94.77323272800004,94.7844593929999,96.2830440319999,96.2830440319999,96.29972234799993,99.717739919,space,3.424640687999954,None,,,,,,,,,,,,,,,,,,,,,,,,test_1102_0,001,2026-02-11_10h55.49.241,Full_PT,2024.2.1,59.90682739061873,2026-02-11 10h56.09.868426 +0000,
,,"(600, 400)",Objects_Dataset/dentist_mirror.jpg,"(300, 300)","(300, -200)",Congruent,Objects_Dataset/surgical_mask.jpg,"(300, 300)","(300, 200)",,,2.6,0,0,0,,,,,,13,Scenes_Dataset/dentist_A.jpg,old,left,down,None,None,c,23.943755308000163,None,,,,,0,0,0,12,99.78002634199993,,,,,,,,,,,,,,,,,,,,,,,99.77252193899994,99.78002634199993,101.96721043699995,102.217380864,102.39295383900003,102.36772899700009,,,,,,,,,,,,,,,,,,,,,,102.38357786100005,102.39295383900003,102.39295383900003,104.88371687299991,104.88371687299991,104.88371687299991,128.83596515399995,None,None,c,23.943755308000163,None,,,,,,,,,,,,test_1102_0,001,2026-02-11_10h55.49.241,Full_PT,2024.2.1,59.90682739061873,2026-02-11 10h56.09.868426 +0000,
,,"(600, 440)",Objects_Dataset/nail.jpg,"(300, 272)","(300, 200)",Congruent,Objects_Dataset/brick.jpg,"(300, 224)","(300, -200)",,,2.6,1,1,0,,,,,,39,Scenes_Dataset/construction_A.jpg,old,left,up,None,None,c,1.59827279000001,None,,,,,0,1,1,38,128.84414697400007,,,,,,,,,,,,,,,,,,,,,,,128.8362707839999,128.84414697400007,131.0881735779999,131.33809005900002,131.46634620400005,131.4383812420001,,,,,,,,,,,,,,,,,,,,,,131.45794364900007,131.46634620400005,131.46634620400005,133.941212941,133.941212941,133.941212941,135.55624711299993,None,None,c,1.59827279000001,None,,,,,,,,,,,,test_1102_0,001,2026-02-11_10h55.49.241,Full_PT,2024.2.1,59.90682739061873,2026-02-11 10h56.09.868426 +0000,
,,"(600, 450)",Objects_Dataset/shield.jpg,"(199, 300)","(300, -200)",Congruent,Objects_Dataset/armor.jpg,"(270, 270)","(300, 200)",,,2.25,2,2,0,,,,,,6,Scenes_Dataset/castle_A.jpg,old,left,down,None,None,c,1.1330374870001378,None,,,,,0,2,2,5,135.563087321,,,,,,,,,,,,,,,,,,,,,,,135.55657329199994,135.563087321,137.805092458,138.06609820800008,137.8221528050001,138.0393707369999,,,,,,,,,,,,,,,,,,,,,,138.0576816150001,138.06609820800008,138.06609820800008,140.54243238699996,140.54243238699996,140.54243238699996,141.68751576,None,None,c,1.1330374870001378,None,,,,,,,,,,,,test_1102_0,001,2026-02-11_10h55.49.241,Full_PT,2024.2.1,59.90682739061873,2026-02-11 10h56.09.868426 +0000,
,,"(600, 338)",Objects_Dataset/watercolors.jpg,"(300, 231)","(300, 200)",Congruent,Objects_Dataset/plasticine.jpg,"(250, 167)","(300, -200)",,,2.25,3,3,0,,,,,,32,Scenes_Dataset/kindergarten_A.jpg,old,left,up,None,None,c,2.751557104000085,None,,,,,0,3,3,31,141.69428080600005,,,,,,,,,,,,,,,,,,,,,,,141.687838134,141.69428080600005,143.93993825899997,144.19823674400004,143.95675443899995,144.17361746799997,,,,,,,,,,,,,,,,,,,,,,144.18998071600004,144.19823674400004,144.19823674400004,146.67591019199995,146.67591019199995,146.67591019199995,149.44622415799995,None,None,c,2.751557104000085,None,,,,,,,,,,,,test_1102_0,001,2026-02-11_10h55.49.241,Full_PT,2024.2.1,59.90682739061873,2026-02-11 10h56.09.868426 +0000,
,,"(600, 375)",Objects_Dataset/cactus.jpg,"(300, 248)","(300, -200)",Congruent,Objects_Dataset/turban.jpg,"(300, 300)","(300, 200)",,,2.65,4,4,0,,,,,,14,Scenes_Dataset/desert_A.jpg,old,left,down,None,None,c,3.1689817829999356,None,,,,,0,4,4,13,149.45655576800004,,,,,,,,,,,,,,,,,,,,,,,149.4464852440001,149.45655576800004,151.7078495369999,151.9580020169999,152.11639581200006,152.0915243710001,,,,,,,,,,,,,,,,,,,,,,152.10783802900005,152.11639581200006,152.11639581200006,154.59448955800008,154.59448955800008,154.59448955800008,157.77187517099992,None,None,c,3.1689817829999356,None,,,,,,,,,,,,test_1102_0,001,2026-02-11_10h55.49.241,Full_PT,2024.2.1,59.90682739061873,2026-02-11 10h56.09.868426 +0000,
,,"(600, 399)",Objects_Dataset/basketball.jpg,"(282, 300)","(300, -200)",Congruent,Objects_Dataset/whistle.jpg,"(200, 151)","(300, 200)",,,2.15,5,5,0,,,,,,4,Scenes_Dataset/basketball_field_A.jpg,old,left,down,None,None,c,0.8733770050000658,None,,,,,0,5,5,3,157.77974417399992,,,,,,,,,,,,,,,,,,,,,,,157.77214800699994,157.77974417399992,160.02574108599993,160.28547926400006,159.9422182159999,160.25932556599992,,,,,,,,,,,,,,,,,,,,,,160.27685303599992,160.28547926400006,160.28547926400006,162.762251934,162.762251934,162.762251934,163.64183337100008,None,None,c,0.8733770050000658,None,,,,,,,,,,,,test_1102_0,001,2026-02-11_10h55.49.241,Full_PT,2024.2.1,59.90682739061873,2026-02-11 10h56.09.868426 +0000,
,,"(600, 450)",Objects_Dataset/stopwatch.jpg,"(184, 250)","(300, 200)",Congruent,Objects_Dataset/athletics_barrier.jpg,"(350, 280)","(300, -200)",,,3.1,6,6,0,,,,,,49,Scenes_Dataset/athletics_track_A.jpg,old,left,up,None,None,c,0.7490508379999028,None,,,,,0,6,6,48,163.6499942360001,,,,,,,,,,,,,,,,,,,,,,,163.64215204700008,163.6499942360001,165.8931800759999,166.14315759200008,166.769676677,166.74355884700003,,,,,,,,,,,,,,,,,,,,,,166.76113625099993,166.769676677,166.769676677,169.24642857699996,169.24642857699996,169.24642857699996,170.01236919999997,None,None,c,0.7490508379999028,None,,,,,,,,,,,,test_1102_0,001,2026-02-11_10h55.49.241,Full_PT,2024.2.1,59.90682739061873,2026-02-11 10h56.09.868426 +0000,
,,"(600, 450)",Objects_Dataset/beach_umbrella.jpg,"(266, 300)","(300, 200)",Congruent,Objects_Dataset/whelk.jpg,"(250, 143)","(300, -200)",,,3.15,7,7,0,,,,,,50,Scenes_Dataset/beach_A.jpg,old,left,up,None,None,c,5.107484972000066,None,,,,,0,7,7,49,170.0192993569999,,,,,,,,,,,,,,,,,,,,,,,170.01282631799995,170.0192993569999,172.27764129000002,172.52755815299997,173.1860670000001,173.16127380500006,,,,,,,,,,,,,,,,,,,,,,173.17772102499998,173.1860670000001,173.1860670000001,175.66400583900008,175.66400583900008,175.66400583900008,180.79106744599994,None,None,c,5.107484972000066,None,,,,,,,,,,,,test_1102_0,001,2026-02-11_10h55.49.241,Full_PT,2024.2.1,59.90682739061873,2026-02-11 10h56.09.868426 +0000,
,,"(600, 450)",Objects_Dataset/diving_mask.jpg,"(300, 197)","(300, -200)",Congruent,Objects_Dataset/snorkeling_tube.jpg,"(251, 300)","(300, 200)",,,2.55,8,8,0,,,,,,12,Scenes_Dataset/underwater_A.jpg,old,left,down,None,None,c,0.6348197689999324,None,,,,,0,8,8,11,180.7980963110001,,,,,,,,,,,,,,,,,,,,,,,180.79152329299995,180.7980963110001,183.04564425600006,183.29573286599998,183.3708343589999,183.34619762500006,,,,,,,,,,,,,,,,,,,,,,183.36250358100006,183.3708343589999,183.3708343589999,185.84865150299993,185.84865150299993,185.84865150299993,186.49737638800002,None,None,c,0.6348197689999324,None,,,,,,,,,,,,test_1102_0,001,2026-02-11_10h55.49.241,Full_PT,2024.2.1,59.90682739061873,2026-02-11 10h56.09.868426 +0000,
,,"(600, 400)",Objects_Dataset/soccer_ball.jpg,"(200, 194)","(300, -200)",Congruent,Objects_Dataset/football_boots.jpg,"(300, 300)","(300, 200)",,,2.9,9,9,0,,,,,,19,Scenes_Dataset/soccer_stadium_A.jpg,old,left,down,None,None,c,1.1277485290002005,None,,,,,0,9,9,18,186.50437512899998,,,,,,,,,,,,,,,,,,,,,,,186.49782634300004,186.50437512899998,188.74646884899994,188.9964986939999,189.421661073,189.39671918499994,,,,,,,,,,,,,,,,,,,,,,189.41332209300003,189.421661073,189.421661073,191.8997590460001,191.8997590460001,191.8997590460001,193.0300130810001,None,None,c,1.1277485290002005,None,,,,,,,,,,,,test_1102_0,001,2026-02-11_10h55.49.241,Full_PT,2024.2.1,59.90682739061873,2026-02-11 10h56.09.868426 +0000,
,,"(600, 400)",Objects_Dataset/banknotes.jpg,"(300, 154)","(300, -200)",Congruent,Objects_Dataset/gold_bar.jpg,"(300, 219)","(300, 200)",,,2.4,10,10,0,,,,,,9,Scenes_Dataset/vault_A.jpg,old,left,down,None,None,c,0.6261752890000025,None,,,,,0,10,10,8,193.03800892100003,,,,,,,,,,,,,,,,,,,,,,,193.03030401399997,193.03800892100003,195.2808137469999,195.5365368749999,195.44754897100006,195.514376567,,,,,,,,,,,,,,,,,,,,,,195.52849457399998,195.5365368749999,195.5365368749999,198.01734881800007,198.01734881800007,198.01734881800007,198.64552261900008,None,None,c,0.6261752890000025,None,,,,,,,,,,,,test_1102_0,001,2026-02-11_10h55.49.241,Full_PT,2024.2.1,59.90682739061873,2026-02-11 10h56.09.868426 +0000,
,,"(600, 398)",Objects_Dataset/ring.jpg,"(128, 150)","(300, 200)",Congruent,Objects_Dataset/jewelry_box.jpg,"(267, 300)","(300, -200)",,,2.7,11,11,0,,,,,,41,Scenes_Dataset/jewelery_A.jpg,old,left,up,None,None,c,0.32787646700012374,None,,,,,0,11,11,40,198.653509707,,,,,,,,,,,,,,,,,,,,,,,198.64582385099993,198.653509707,200.89841096300006,201.1483832660001,201.37230250099992,201.34873234299994,,,,,,,,,,,,,,,,,,,,,,201.36422157800007,201.37230250099992,201.37230250099992,203.851620229,203.851620229,203.851620229,204.19802222099997,None,None,c,0.32787646700012374,None,,,,,,,,,,,,test_1102_0,001,2026-02-11_10h55.49.241,Full_PT,2024.2.1,59.90682739061873,2026-02-11 10h56.09.868426 +0000,
,,"(600, 400)",Objects_Dataset/train_seats.jpg,"(300, 300)","(300, 200)",Incongruent,Objects_Dataset/beach_bucket.jpg,"(300, 300)","(300, -200)",,,2.75,12,12,0,,,,,,42,Scenes_Dataset/bakery_A.jpg,old,left,up,None,None,z,0.8711009419998845,None,,,,,0,12,12,41,204.20477209199998,,,,,,,,,,,,,,,,,,,,,,,204.19834814499995,204.20477209199998,206.44912115400007,206.69910081000012,206.97533338900007,206.949546886,,,,,,,,,,,,,,,,,,,,,,206.96703106199993,206.97533338900007,206.97533338900007,209.452385264,209.452385264,209.452385264,210.33838607899997,None,None,z,0.8711009419998845,None,,,,,,,,,,,,test_1102_0,001,2026-02-11_10h55.49.241,Full_PT,2024.2.1,59.90682739061873,2026-02-11 10h56.09.868426 +0000,
,,"(600, 400)",Objects_Dataset/plate.jpg,"(300, 117)","(300, 200)",Congruent,Objects_Dataset/fork.jpg,"(300, 180)","(300, -200)",,,2,13,13,0,,,,,,53,Scenes_Dataset/restaurant_A.jpg,old,left,up,None,None,c,0.843170081000153,None,,,,,0,13,13,52,210.349059399,,,,,,,,,,,,,,,,,,,,,,,210.33864571599997,210.349059399,212.60023434899995,212.85638562300005,212.350122972,212.8338249809999,,,,,,,,,,,,,,,,,,,,,,212.84812849700006,212.85638562300005,212.85638562300005,215.33642955999994,215.33642955999994,215.33642955999994,216.18355549600005,None,None,c,0.843170081000153,None,,,,,,,,,,,,test_1102_0,001,2026-02-11_10h55.49.241,Full_PT,2024.2.1,59.90682739061873,2026-02-11 10h56.09.868426 +0000,
,,"(600, 400)",Objects_Dataset/miners_cap.jpg,"(300, 300)","(300, -200)",Incongruent,Objects_Dataset/juggling_balls.jpg,"(350, 197)","(300, 200)",,,2.45,14,14,0,,,,,,10,Scenes_Dataset/clinic_A.jpg,old,left,down,None,None,z,0.5126301200000398,None,,,,,0,14,14,9,216.19159672199999,,,,,,,,,,,,,,,,,,,,,,,216.18385384900012,216.19159672199999,218.43410017099995,218.691091078,218.65091064800004,218.66779939999992,,,,,,,,,,,,,,,,,,,,,,218.68288922500005,218.691091078,218.691091078,221.17091909600003,221.17091909600003,221.17091909600003,221.68866983399994,None,None,z,0.5126301200000398,None,,,,,,,,,,,,test_1102_0,001,2026-02-11_10h55.49.241,Full_PT,2024.2.1,59.90682739061873,2026-02-11 10h56.09.868426 +0000,
,,"(600, 450)",Objects_Dataset/torch.jpg,"(210, 300)","(300, -200)",Incongruent,Objects_Dataset/semaphore.jpg,"(199, 300)","(300, 200)",,,2.05,15,15,0,,,,,,2,Scenes_Dataset/storage_A.jpg,old,left,down,None,None,z,0.5233890760000577,None,,,,,0,15,15,1,221.7010942679999,,,,,,,,,,,,,,,,,,,,,,,221.68896958799996,221.7010942679999,223.95162064700003,224.21178839899994,223.751626944,224.18529001299999,,,,,,,,,,,,,,,,,,,,,,224.20335995100004,224.21178839899994,224.21178839899994,226.68808590100002,226.68808590100002,226.68808590100002,227.223129815,None,None,z,0.5233890760000577,None,,,,,,,,,,,,test_1102_0,001,2026-02-11_10h55.49.241,Full_PT,2024.2.1,59.90682739061873,2026-02-11 10h56.09.868426 +0000,
,,"(600, 436)",Objects_Dataset/remote_control.jpg,"(300, 293)","(300, 200)",Congruent,Objects_Dataset/dvd_player.jpg,"(350, 144)","(300, -200)",,,2.1,16,16,0,,,,,,55,Scenes_Dataset/living_room_A.jpg,old,left,up,None,None,c,0.7327196349999667,None,,,,,0,16,16,54,227.2352216889999,,,,,,,,,,,,,,,,,,,,,,,227.22357785000008,227.2352216889999,229.48562062399992,229.7462394490001,229.335773625,229.71935323399998,,,,,,,,,,,,,,,,,,,,,,229.73766945400007,229.7462394490001,229.7462394490001,232.22276661799992,232.22276661799992,232.22276661799992,232.97116494400007,None,None,c,0.7327196349999667,None,,,,,,,,,,,,test_1102_0,001,2026-02-11_10h55.49.241,Full_PT,2024.2.1,59.90682739061873,2026-02-11 10h56.09.868426 +0000,
,,"(600, 400)",Objects_Dataset/pipette.jpg,"(300, 221)","(300, 200)",Congruent,Objects_Dataset/microscope.jpg,"(250, 300)","(300, -200)",,,2.3,17,17,0,,,,,,33,Scenes_Dataset/laboratory_A.jpg,old,left,up,None,None,c,0.9901790379999511,None,,,,,0,17,17,32,232.97796087100005,,,,,,,,,,,,,,,,,,,,,,,232.97162322200006,232.97796087100005,235.2365364719999,235.496194759,235.28654594499994,235.47044330199992,,,,,,,,,,,,,,,,,,,,,,235.48782632400003,235.496194759,235.496194759,237.9734024889999,237.9734024889999,237.9734024889999,238.97015303500007,None,None,c,0.9901790379999511,None,,,,,,,,,,,,test_1102_0,001,2026-02-11_10h55.49.241,Full_PT,2024.2.1,59.90682739061873,2026-02-11 10h56.09.868426 +0000,
,,"(600, 450)",Objects_Dataset/sandal.jpg,"(300, 225)","(300, -200)",Incongruent,Objects_Dataset/parking_meter.jpg,"(200, 300)","(300, 200)",,,3.2,18,18,0,,,,,,25,Scenes_Dataset/igloo_A.jpg,old,left,down,None,None,z,0.8731958010000653,None,,,,,0,18,18,24,238.97829518899994,,,,,,,,,,,,,,,,,,,,,,,238.97047973600002,238.97829518899994,241.22077169699992,241.47080690200005,242.19742597699997,242.1712232970001,,,,,,,,,,,,,,,,,,,,,,242.1887416290001,242.19742597699997,242.19742597699997,244.6744270470001,244.6744270470001,244.6744270470001,245.554220021,None,None,z,0.8731958010000653,None,,,,,,,,,,,,test_1102_0,001,2026-02-11_10h55.49.241,Full_PT,2024.2.1,59.90682739061873,2026-02-11 10h56.09.868426 +0000,
,,"(600, 403)",Objects_Dataset/magic_cube.jpg,"(300, 300)","(300, -200)",Incongruent,Objects_Dataset/colander.jpg,"(191, 250)","(300, 200)",,,3.25,19,19,0,,,,,,26,Scenes_Dataset/church_A.jpg,old,left,down,None,None,z,2.8070994400000018,None,,,,,0,19,19,25,245.5623925960001,,,,,,,,,,,,,,,,,,,,,,,245.5545405360001,245.5623925960001,247.8050634409999,248.05503986100007,248.83294863900005,248.80538474600007,,,,,,,,,,,,,,,,,,,,,,248.82435932299995,248.83294863900005,248.83294863900005,251.30855096699997,251.30855096699997,251.30855096699997,254.1223532439999,None,None,z,2.8070994400000018,None,,,,,,,,,,,,test_1102_0,001,2026-02-11_10h55.49.241,Full_PT,2024.2.1,59.90682739061873,2026-02-11 10h56.09.868426 +0000,
,,"(600, 338)",Objects_Dataset/suitcase.jpg,"(226, 350)","(300, -200)",Congruent,Objects_Dataset/luggage_cart.jpg,"(232, 300)","(300, 200)",,,2,20,20,0,,,,,,1,Scenes_Dataset/airport_A.jpg,old,left,down,None,None,c,0.31040890799999943,None,,,,,0,20,20,0,254.1305631570001,,,,,,,,,,,,,,,,,,,,,,,254.12266898100006,254.1305631570001,256.373152807,256.6321480449999,256.139718784,256.6068054709999,,,,,,,,,,,,,,,,,,,,,,256.62373290200003,256.6321480449999,256.6321480449999,259.109108743,259.109108743,259.109108743,259.42120054199995,None,None,c,0.31040890799999943,None,,,,,,,,,,,,test_1102_0,001,2026-02-11_10h55.49.241,Full_PT,2024.2.1,59.90682739061873,2026-02-11 10h56.09.868426 +0000,
,,"(600, 451)",Objects_Dataset/megaphone.jpg,"(300, 257)","(300, 200)",Incongruent,Objects_Dataset/water_bottle.jpg,"(350, 222)","(300, -200)",,,3.2,21,21,0,,,,,,51,Scenes_Dataset/hair_salon_A.jpg,old,left,up,None,None,z,0.2841625410001143,None,,,,,0,21,21,50,259.42923212799997,,,,,,,,,,,,,,,,,,,,,,,259.4214984800001,259.42923212799997,261.6738171300001,261.92386267300003,262.64966652499993,262.62425055099993,,,,,,,,,,,,,,,,,,,,,,262.6410044720001,262.64966652499993,262.64966652499993,265.127316932,265.127316932,265.127316932,265.42689417299994,None,None,z,0.2841625410001143,None,,,,,,,,,,,,test_1102_0,001,2026-02-11_10h55.49.241,Full_PT,2024.2.1,59.90682739061873,2026-02-11 10h56.09.868426 +0000,
,,"(600, 450)",Objects_Dataset/surf_board.jpg,"(114, 350)","(300, 200)",Congruent,Objects_Dataset/surf_suit.jpg,"(256, 350)","(300, -200)",,,2.65,22,22,0,,,,,,40,Scenes_Dataset/waves.jpg,old,left,up,None,None,c,0.2980001739999807,None,,,,,0,22,22,39,265.43389984400005,,,,,,,,,,,,,,,,,,,,,,,265.42735229100003,265.43389984400005,267.6914858370001,267.9415736860001,268.10067465299994,268.0750047250001,,,,,,,,,,,,,,,,,,,,,,268.0921460689999,268.10067465299994,268.10067465299994,270.57748173799996,270.57748173799996,270.57748173799996,270.8928331950001,None,None,c,0.2980001739999807,None,,,,,,,,,,,,test_1102_0,001,2026-02-11_10h55.49.241,Full_PT,2024.2.1,59.90682739061873,2026-02-11 10h56.09.868426 +0000,
,,"(600, 337)",Objects_Dataset/wine_cork.jpg,"(250, 163)","(300, 200)",Incongruent,Objects_Dataset/bible.jpg,"(300, 248)","(300, -200)",,,3,23,23,0,,,,,,47,Scenes_Dataset/playground_A.jpg,old,left,up,None,None,z,0.3840333329999339,None,,,,,0,23,23,46,270.8997846069999,,,,,,,,,,,,,,,,,,,,,,,270.893282172,270.8997846069999,273.142296022,273.39222898699995,273.917011021,273.89254212900005,,,,,,,,,,,,,,,,,,,,,,273.9087060679999,273.917011021,273.917011021,276.39544438999997,276.39544438999997,276.39544438999997,276.79239451700005,None,None,z,0.3840333329999339,None,,,,,,,,,,,,test_1102_0,001,2026-02-11_10h55.49.241,Full_PT,2024.2.1,59.90682739061873,2026-02-11 10h56.09.868426 +0000,
,,"(600, 450)",Objects_Dataset/elevator_buttons_panel.jpg,"(257, 300)","(300, -200)",Congruent,Objects_Dataset/surveillance_camera.jpg,"(300, 204)","(300, 200)",,,2.75,24,24,0,,,,,,16,Scenes_Dataset/elevator_A.jpg,old,left,down,None,None,c,1.0290966000000026,None,,,,,0,24,24,15,276.7991286030001,,,,,,,,,,,,,,,,,,,,,,,276.792721734,276.7991286030001,279.04310546400006,279.29298680600004,279.56914061299995,279.5433586859999,,,,,,,,,,,,,,,,,,,,,,279.560732851,279.56914061299995,279.56914061299995,282.0464013159999,282.0464013159999,282.0464013159999,283.095104881,None,None,c,1.0290966000000026,None,,,,,,,,,,,,test_1102_0,001,2026-02-11_10h55.49.241,Full_PT,2024.2.1,59.90682739061873,2026-02-11 10h56.09.868426 +0000,
,,"(600, 389)",Objects_Dataset/car_key.jpg,"(300, 125)","(300, -200)",Congruent,Objects_Dataset/car_freshener.jpg,"(277, 300)","(300, 200)",,,2.1,25,25,0,,,,,,29,Scenes_Dataset/car_interior_A.jpg,old,left,down,None,None,c,1.0182794309998826,None,,,,,0,25,25,28,283.10205769999993,,,,,,,,,,,,,,,,,,,,,,,283.0955618590001,283.10205769999993,285.36052812,285.6196707910001,285.21055326600003,285.59418704099994,,,,,,,,,,,,,,,,,,,,,,285.6112949200001,285.6196707910001,285.6196707910001,288.0971978970001,288.0971978970001,288.0971978970001,289.127764718,None,None,c,1.0182794309998826,None,,,,,,,,,,,,test_1102_0,001,2026-02-11_10h55.49.241,Full_PT,2024.2.1,59.90682739061873,2026-02-11 10h56.09.868426 +0000,
,,"(600, 450)",Objects_Dataset/desk_microphone.jpg,"(300, 300)","(300, -200)",Incongruent,Objects_Dataset/tennis_ball.jpg,"(200, 200)","(300, 200)",,,2.5,26,26,0,,,,,,11,Scenes_Dataset/kitchen_A.jpg,old,left,down,None,None,z,5.591860386000008,None,,,,,0,26,26,10,289.13459037999996,,,,,,,,,,,,,,,,,,,,,,,289.12809011600007,289.13459037999996,291.3781740950001,291.6283304880001,291.6541293780001,291.628653881,,,,,,,,,,,,,,,,,,,,,,291.6455684309999,291.6541293780001,291.6541293780001,294.1316255429999,294.1316255429999,294.1316255429999,299.73629187100005,None,None,z,5.591860386000008,None,,,,,,,,,,,,test_1102_0,001,2026-02-11_10h55.49.241,Full_PT,2024.2.1,59.90682739061873,2026-02-11 10h56.09.868426 +0000,
,,"(600, 398)",Objects_Dataset/battery.jpg,"(300, 188)","(300, -200)",Incongruent,Objects_Dataset/luggage_carrier_cart.jpg,"(214, 350)","(300, 200)",,,2.3,27,27,0,,,,,,7,Scenes_Dataset/sky_A.jpg,old,left,down,None,None,z,0.2865712039999835,None,,,,,0,27,27,6,299.745741531,,,,,,,,,,,,,,,,,,,,,,,299.736744028,299.745741531,301.996269706,302.2556585950001,302.046287463,302.23089344899995,,,,,,,,,,,,,,,,,,,,,,302.24726762299997,302.2556585950001,302.2556585950001,304.73288881200006,304.73288881200006,304.73288881200006,305.02736623300007,None,None,z,0.2865712039999835,None,,,,,,,,,,,,test_1102_0,001,2026-02-11_10h55.49.241,Full_PT,2024.2.1,59.90682739061873,2026-02-11 10h56.09.868426 +0000,
,,"(600, 370)",Objects_Dataset/scissors.jpg,"(300, 145)","(300, 200)",Congruent,Objects_Dataset/stapler.jpg,"(250, 178)","(300, -200)",,,2.8,28,28,0,,,,,,43,Scenes_Dataset/stationary_store_A.jpg,old,left,up,None,None,c,0.2620864640000491,None,,,,,0,28,28,42,305.0351673360001,,,,,,,,,,,,,,,,,,,,,,,305.02764120899997,305.0351673360001,307.2804669049999,307.53060413000003,307.856273201,307.8309642669999,,,,,,,,,,,,,,,,,,,,,,307.847813265,307.856273201,307.856273201,310.33339015,310.33339015,310.33339015,310.61263528099994,None,None,c,0.2620864640000491,None,,,,,,,,,,,,test_1102_0,001,2026-02-11_10h55.49.241,Full_PT,2024.2.1,59.90682739061873,2026-02-11 10h56.09.868426 +0000,
,,"(600, 375)",Objects_Dataset/defibrillator_paddles.jpg,"(350, 223)","(300, -200)",Incongruent,Objects_Dataset/pedestal_column.jpg,"(155, 300)","(300, 200)",,,2.2,29,29,0,,,,,,5,Scenes_Dataset/tree_house.jpg,old,left,down,None,None,z,0.8023349919999418,None,,,,,0,29,29,4,310.61949129799996,,,,,,,,,,,,,,,,,,,,,,,310.612962551,310.61949129799996,312.864584572,313.1244013129999,312.8311110740001,313.0980657110001,,,,,,,,,,,,,,,,,,,,,,313.115800947,313.1244013129999,313.1244013129999,315.601135528,315.601135528,315.601135528,316.416305986,None,None,z,0.8023349919999418,None,,,,,,,,,,,,test_1102_0,001,2026-02-11_10h55.49.241,Full_PT,2024.2.1,59.90682739061873,2026-02-11 10h56.09.868426 +0000,
,,"(600, 446)",Objects_Dataset/saline.jpg,"(300, 225)","(300, 200)",Incongruent,Objects_Dataset/soap_dispenser.jpg,"(300, 300)","(300, -200)",,,2.2,30,30,0,,,,,,31,Scenes_Dataset/garden_A.jpg,old,left,up,None,None,z,0.31389193999984855,None,,,,,0,30,30,30,316.423145513,,,,,,,,,,,,,,,,,,,,,,,316.416762652,316.423145513,318.665572998,318.9261380820001,318.6322161979999,318.8992498319999,,,,,,,,,,,,,,,,,,,,,,318.91784927799995,318.9261380820001,318.9261380820001,321.40159282600007,321.40159282600007,321.40159282600007,321.73432679100006,None,None,z,0.31389193999984855,None,,,,,,,,,,,,test_1102_0,001,2026-02-11_10h55.49.241,Full_PT,2024.2.1,59.90682739061873,2026-02-11 10h56.09.868426 +0000,
,,"(600, 450)",Objects_Dataset/locker.jpg,"(264, 400)","(300, -200)",Incongruent,Objects_Dataset/domino_piece.jpg,"(200, 174)","(300, 200)",,,2.95,31,31,0,,,,,,20,Scenes_Dataset/road_A.jpg,old,left,down,None,None,z,2.64913304300012,None,,,,,0,31,31,19,321.741122142,,,,,,,,,,,,,,,,,,,,,,,321.73477919800007,321.741122142,323.9994776410001,324.2497611430001,324.7108707520001,324.68333173199994,,,,,,,,,,,,,,,,,,,,,,324.7020711509999,324.7108707520001,324.7108707520001,327.1864217130001,327.1864217130001,327.1864217130001,329.843343904,None,None,z,2.64913304300012,None,,,,,,,,,,,,test_1102_0,001,2026-02-11_10h55.49.241,Full_PT,2024.2.1,59.90682739061873,2026-02-11 10h56.09.868426 +0000,
,,"(600, 450)",Objects_Dataset/feeding_bottle.jpg,"(300, 295)","(300, -200)",Congruent,Objects_Dataset/mobile_baby.jpg,"(350, 263)","(300, 200)",,,2.1,32,32,0,,,,,,3,Scenes_Dataset/nursery_A.jpg,old,left,down,None,None,c,4.542898142000013,None,,,,,0,32,32,2,329.85183611499997,,,,,,,,,,,,,,,,,,,,,,,329.84367130500004,329.85183611499997,332.1006654109999,332.3586016680001,331.96713843099997,332.334334421,,,,,,,,,,,,,,,,,,,,,,332.35023404599997,332.3586016680001,332.3586016680001,334.83661632999997,334.83661632999997,334.83661632999997,339.3849582780001,None,None,c,4.542898142000013,None,,,,,,,,,,,,test_1102_0,001,2026-02-11_10h55.49.241,Full_PT,2024.2.1,59.90682739061873,2026-02-11 10h56.09.868426 +0000,
,,"(600, 450)",Objects_Dataset/set_square.jpg,"(300, 182)","(300, 200)",Congruent,Objects_Dataset/drawing_compass.jpg,"(111, 300)","(300, -200)",,,2.15,33,33,0,,,,,,56,Scenes_Dataset/classroom_A.jpg,old,left,up,None,None,c,0.8718576639998901,None,,,,,0,33,33,55,339.3931091310001,,,,,,,,,,,,,,,,,,,,,,,339.3852705710001,339.3931091310001,341.63532409100003,341.89328845599994,341.551965762,341.86924552999994,,,,,,,,,,,,,,,,,,,,,,341.885137364,341.89328845599994,341.89328845599994,344.37161299800005,344.37161299800005,344.37161299800005,345.251440624,None,None,c,0.8718576639998901,None,,,,,,,,,,,,test_1102_0,001,2026-02-11_10h55.49.241,Full_PT,2024.2.1,59.90682739061873,2026-02-11 10h56.09.868426 +0000,
,,"(600, 400)",Objects_Dataset/trash_can.jpg,"(225, 300)","(300, 200)",Incongruent,Objects_Dataset/plastic_bag.jpg,"(350, 197)","(300, -200)",,,2.05,34,34,0,,,,,,54,Scenes_Dataset/closet_A.jpg,old,left,up,None,None,z,0.27589986600014527,None,,,,,0,34,34,53,345.25961645000007,,,,,,,,,,,,,,,,,,,,,,,345.25175497300006,345.25961645000007,347.50299528000005,347.76180620800005,347.31939681099993,347.736631107,,,,,,,,,,,,,,,,,,,,,,347.753329959,347.76180620800005,347.76180620800005,350.2396433910001,350.2396433910001,350.2396433910001,350.5193932100001,None,None,z,0.27589986600014527,None,,,,,,,,,,,,test_1102_0,001,2026-02-11_10h55.49.241,Full_PT,2024.2.1,59.90682739061873,2026-02-11 10h56.09.868426 +0000,
,,"(600, 375)",Objects_Dataset/rolling_pin.jpg,"(300, 300)","(300, 200)",Incongruent,Objects_Dataset/tie.jpg,"(259, 300)","(300, -200)",,,2.55,35,35,0,,,,,,38,Scenes_Dataset/snow_A.jpg,old,left,up,None,None,z,0.26985624999997526,None,,,,,0,35,35,37,350.5274169889999,,,,,,,,,,,,,,,,,,,,,,,350.5197060139999,350.5274169889999,352.77058130599994,353.02056056900005,353.0952061180001,353.0707706779999,,,,,,,,,,,,,,,,,,,,,,353.0866455539999,353.0952061180001,353.0952061180001,355.57362027599993,355.57362027599993,355.57362027599993,355.85147743900006,None,None,z,0.26985624999997526,None,,,,,,,,,,,,test_1102_0,001,2026-02-11_10h55.49.241,Full_PT,2024.2.1,59.90682739061873,2026-02-11 10h56.09.868426 +0000,
,,"(600, 402)",Objects_Dataset/hotel_bell.jpg,"(171, 200)","(300, 200)",Incongruent,Objects_Dataset/door_mat.jpg,"(300, 300)","(300, -200)",,,2.85,36,36,0,,,,,,44,Scenes_Dataset/campsite_A.jpg,old,left,up,None,None,z,0.26770670899986726,None,,,,,0,36,36,43,355.85936033200005,,,,,,,,,,,,,,,,,,,,,,,355.85174920300005,355.85936033200005,358.10462662500004,358.3547776559999,358.72985014799997,358.7050804539999,,,,,,,,,,,,,,,,,,,,,,358.721576467,358.72985014799997,358.72985014799997,361.207777008,361.207777008,361.207777008,361.48821096999995,None,None,z,0.26770670899986726,None,,,,,,,,,,,,test_1102_0,001,2026-02-11_10h55.49.241,Full_PT,2024.2.1,59.90682739061873,2026-02-11 10h56.09.868426 +0000,
,,"(600, 402)",Objects_Dataset/eskimo_coat.jpg,"(300, 300)","(300, 200)",Incongruent,Objects_Dataset/brown_adhesive_tape.jpg,"(250, 190)","(300, -200)",,,2.3,37,37,0,,,,,,59,Scenes_Dataset/savannah_A.jpg,old,left,up,None,None,z,0.22427910900000825,None,,,,,0,37,37,58,361.494949272,,,,,,,,,,,,,,,,,,,,,,,361.4885302,361.494949272,363.7387963850001,363.995699395,363.8054838339999,363.97246016500003,,,,,,,,,,,,,,,,,,,,,,363.9874099450001,363.995699395,363.995699395,366.475202698,366.475202698,366.475202698,366.70518300799995,None,None,z,0.22427910900000825,None,,,,,,,,,,,,test_1102_0,001,2026-02-11_10h55.49.241,Full_PT,2024.2.1,59.90682739061873,2026-02-11 10h56.09.868426 +0000,
,,"(600, 447)",Objects_Dataset/crown.jpg,"(300, 249)","(300, -200)",Congruent,Objects_Dataset/throne.jpg,"(234, 350)","(300, 200)",,,2.15,38,38,0,,,,,,30,Scenes_Dataset/palace_interior_A.jpg,old,left,down,None,None,c,0.2626836580000145,None,,,,,0,38,38,29,366.713448686,,,,,,,,,,,,,,,,,,,,,,,366.70550864300003,366.713448686,368.956315291,369.218219998,368.872817315,369.1898464599999,,,,,,,,,,,,,,,,,,,,,,369.2097931809999,369.218219998,369.218219998,371.69284375899997,371.69284375899997,371.69284375899997,371.963148479,None,None,c,0.2626836580000145,None,,,,,,,,,,,,test_1102_0,001,2026-02-11_10h55.49.241,Full_PT,2024.2.1,59.90682739061873,2026-02-11 10h56.09.868426 +0000,
,,"(600, 421)",Objects_Dataset/clown_nose.jpg,"(300, 142)","(300, -200)",Congruent,Objects_Dataset/unicycle.jpg,"(159, 300)","(300, 200)",,,2.35,39,39,0,,,,,,8,Scenes_Dataset/circus_A.jpg,old,left,down,None,None,c,0.6196393050001916,None,,,,,0,39,39,7,371.97309836399995,,,,,,,,,,,,,,,,,,,,,,,371.9634738,371.97309836399995,374.2235615100001,374.4826901660001,374.32368918399993,374.45733346099996,,,,,,,,,,,,,,,,,,,,,,374.4740819010001,374.4826901660001,374.4826901660001,376.95984393599997,376.95984393599997,376.95984393599997,377.591538633,None,None,c,0.6196393050001916,None,,,,,,,,,,,,test_1102_0,001,2026-02-11_10h55.49.241,Full_PT,2024.2.1,59.90682739061873,2026-02-11 10h56.09.868426 +0000,
,,"(600, 415)",Objects_Dataset/hairdryer.jpg,"(250, 241)","(300, -200)",Incongruent,Objects_Dataset/hang_glider.jpg,"(450, 275)","(300, 200)",,,2.85,40,40,0,,,,,,18,Scenes_Dataset/train_station_A.jpg,old,left,down,None,None,z,0.7073831089999203,None,,,,,0,40,40,17,377.5985620260001,,,,,,,,,,,,,,,,,,,,,,,377.591861935,377.5985620260001,379.8410274119999,380.09107072999996,380.467429303,380.4413549650001,,,,,,,,,,,,,,,,,,,,,,380.45883147199993,380.467429303,380.467429303,382.94425094300004,382.94425094300004,382.94425094300004,383.6577437579999,None,None,z,0.7073831089999203,None,,,,,,,,,,,,test_1102_0,001,2026-02-11_10h55.49.241,Full_PT,2024.2.1,59.90682739061873,2026-02-11 10h56.09.868426 +0000,
,,"(600, 524)",Objects_Dataset/tin.jpg,"(233, 350)","(300, 200)",Incongruent,Objects_Dataset/lighter.jpg,"(300, 197)","(300, -200)",,,3.25,41,41,0,,,,,,52,Scenes_Dataset/childrens_room_A.jpg,old,left,up,None,None,z,0.7834334010001385,None,,,,,0,41,41,51,383.665827628,,,,,,,,,,,,,,,,,,,,,,,383.658062017,383.665827628,385.908575531,386.1585385430001,386.9401366720001,386.909087002,,,,,,,,,,,,,,,,,,,,,,386.930827294,386.9401366720001,386.9401366720001,389.41220603500005,389.41220603500005,389.41220603500005,390.20399092799994,None,None,z,0.7834334010001385,None,,,,,,,,,,,,test_1102_0,001,2026-02-11_10h55.49.241,Full_PT,2024.2.1,59.90682739061873,2026-02-11 10h56.09.868426 +0000,
,,"(600, 434)",Objects_Dataset/watering_can.jpg,"(300, 272)","(300, -200)",Incongruent,Objects_Dataset/racket.jpg,"(300, 300)","(300, 200)",,,3.1,42,42,0,,,,,,23,Scenes_Dataset/art_gallery_A.jpg,old,left,down,None,None,z,0.3985140469999351,None,,,,,0,42,42,22,390.2129700580001,,,,,,,,,,,,,,,,,,,,,,,390.20457104599996,390.2129700580001,392.45929332900005,392.7093795999999,393.33603132200005,393.30978701899994,,,,,,,,,,,,,,,,,,,,,,393.3274641779999,393.33603132200005,393.33603132200005,395.8129778110001,395.8129778110001,395.8129778110001,396.228265578,None,None,z,0.3985140469999351,None,,,,,,,,,,,,test_1102_0,001,2026-02-11_10h55.49.241,Full_PT,2024.2.1,59.90682739061873,2026-02-11 10h56.09.868426 +0000,
,,"(600, 461)",Objects_Dataset/pills.jpg,"(216, 250)","(300, -200)",Congruent,Objects_Dataset/thermometer.jpg,"(300, 199)","(300, 200)",,,3,43,43,0,,,,,,21,Scenes_Dataset/pharmacy_A.jpg,old,left,down,None,None,c,0.41693566199978704,None,,,,,0,43,43,20,396.235327609,,,,,,,,,,,,,,,,,,,,,,,396.22871321,396.235327609,398.49387063099994,398.74383668199994,399.2536252330001,399.22772132499995,,,,,,,,,,,,,,,,,,,,,,399.2451513660001,399.2536252330001,399.2536252330001,401.73054258699995,401.73054258699995,401.73054258699995,402.1596431779999,None,None,c,0.41693566199978704,None,,,,,,,,,,,,test_1102_0,001,2026-02-11_10h55.49.241,Full_PT,2024.2.1,59.90682739061873,2026-02-11 10h56.09.868426 +0000,
,,"(600, 494)",Objects_Dataset/bikini.jpg,"(350, 350)","(300, 200)",Congruent,Objects_Dataset/swim_shorts.jpg,"(300, 300)","(300, -200)",,,3.05,44,44,0,,,,,,48,Scenes_Dataset/pool_A.jpg,old,left,up,None,None,c,0.24060129999998026,None,,,,,0,44,44,47,402.16646629699994,,,,,,,,,,,,,,,,,,,,,,,402.1599689049999,402.16646629699994,404.41142898399994,404.6613756280001,405.240877298,405.2117789260001,,,,,,,,,,,,,,,,,,,,,,405.23221068,405.240877298,405.240877298,407.714877658,407.714877658,407.714877658,407.958471274,None,None,c,0.24060129999998026,None,,,,,,,,,,,,test_1102_0,001,2026-02-11_10h55.49.241,Full_PT,2024.2.1,59.90682739061873,2026-02-11 10h56.09.868426 +0000,
,,"(600, 450)",Objects_Dataset/soap.jpg,"(300, 191)","(300, 200)",Congruent,Objects_Dataset/toothbrush.jpg,"(300, 215)","(300, -200)",,,2.35,45,45,0,,,,,,60,Scenes_Dataset/toilet_A.jpg,old,left,up,None,None,c,0.39866485700008525,None,,,,,0,45,45,59,407.96636413500005,,,,,,,,,,,,,,,,,,,,,,,407.958769052,407.96636413500005,410.21223943199993,410.4720606830001,410.32866913299995,410.4460242529999,,,,,,,,,,,,,,,,,,,,,,410.46345208699995,410.4720606830001,410.4720606830001,412.94882248399995,412.94882248399995,412.94882248399995,413.3620978900001,None,None,c,0.39866485700008525,None,,,,,,,,,,,,test_1102_0,001,2026-02-11_10h55.49.241,Full_PT,2024.2.1,59.90682739061873,2026-02-11 10h56.09.868426 +0000,
,,"(600, 450)",Objects_Dataset/fan.jpg,"(350, 350)","(300, 200)",Incongruent,Objects_Dataset/ladder.jpg,"(241, 400)","(300, -200)",,,2.9,46,46,0,,,,,,45,Scenes_Dataset/skate_park_A.jpg,old,left,up,None,None,z,0.2688841199999388,None,,,,,0,46,46,44,413.368929151,,,,,,,,,,,,,,,,,,,,,,,413.362423971,413.368929151,415.61294809700007,415.86304023899993,416.2886957799999,416.2635204579999,,,,,,,,,,,,,,,,,,,,,,416.280397686,416.2886957799999,416.2886957799999,418.76663648499994,418.76663648499994,418.76663648499994,419.05509968,None,None,z,0.2688841199999388,None,,,,,,,,,,,,test_1102_0,001,2026-02-11_10h55.49.241,Full_PT,2024.2.1,59.90682739061873,2026-02-11 10h56.09.868426 +0000,
,,"(600, 408)",Objects_Dataset/laundry_basket.jpg,"(300, 225)","(300, 200)",Congruent,Objects_Dataset/laundry_detergent.jpg,"(186, 264)","(300, -200)",,,2.35,47,47,0,,,,,,34,Scenes_Dataset/laundry_A.jpg,old,left,up,None,None,c,0.40118618500014236,None,,,,,0,47,47,33,419.063288304,,,,,,,,,,,,,,,,,,,,,,,419.05555688000004,419.063288304,421.31363159800003,421.57335104000003,421.413887959,421.54752243200005,,,,,,,,,,,,,,,,,,,,,,421.56491056000004,421.57335104000003,421.57335104000003,424.0502793999999,424.0502793999999,424.0502793999999,424.46551120699996,None,None,c,0.40118618500014236,None,,,,,,,,,,,,test_1102_0,001,2026-02-11_10h55.49.241,Full_PT,2024.2.1,59.90682739061873,2026-02-11 10h56.09.868426 +0000,
,,"(600, 450)",Objects_Dataset/handcuffs.jpg,"(300, 183)","(300, -200)",Incongruent,Objects_Dataset/staple_puller.jpg,"(200, 200)","(300, 200)",,,2.7,48,48,0,,,,,,15,Scenes_Dataset/balcony.jpg,old,left,down,None,None,x,0.783516895000048,None,,,,,0,48,48,14,424.4725804479999,,,,,,,,,,,,,,,,,,,,,,,424.46596203900003,424.4725804479999,426.71469285700005,426.9647326239999,427.19109047100005,427.1648947230001,,,,,,,,,,,,,,,,,,,,,,427.1826412380001,427.19109047100005,427.19109047100005,429.6679714090001,429.6679714090001,429.6679714090001,430.467780426,None,None,x,0.783516895000048,None,,,,,,,,,,,,test_1102_0,001,2026-02-11_10h55.49.241,Full_PT,2024.2.1,59.90682739061873,2026-02-11 10h56.09.868426 +0000,
,,"(600, 450)",Objects_Dataset/horseshoe.jpg,"(300, 296)","(300, -200)",Congruent,Objects_Dataset/saddle.jpg,"(300, 199)","(300, 200)",,,2.8,49,49,0,,,,,,17,Scenes_Dataset/stable_A.jpg,old,left,down,None,None,c,0.43495271999995566,None,,,,,0,49,49,16,430.4817196680001,,,,,,,,,,,,,,,,,,,,,,,430.4682440209999,430.4817196680001,432.7317893290001,432.9818515879999,433.290939427,433.265737274,,,,,,,,,,,,,,,,,,,,,,433.2824534030001,433.290939427,433.290939427,435.768531574,435.768531574,435.768531574,436.218663761,None,None,c,0.43495271999995566,None,,,,,,,,,,,,test_1102_0,001,2026-02-11_10h55.49.241,Full_PT,2024.2.1,59.90682739061873,2026-02-11 10h56.09.868426 +0000,
,,"(600, 399)",Objects_Dataset/mannequin.jpg,"(340, 400)","(300, -200)",Incongruent,Objects_Dataset/ballet_shoe.jpg,"(300, 300)","(300, 200)",,,3.15,50,50,0,,,,,,24,Scenes_Dataset/vegetable_garden_A.jpg,old,left,down,None,None,x,1.2458486600000924,None,,,,,0,50,50,23,436.2327665990001,,,,,,,,,,,,,,,,,,,,,,,436.218920194,436.2327665990001,438.48295271000006,438.733128784,439.3939428420001,439.3668563629999,,,,,,,,,,,,,,,,,,,,,,439.3851411569999,439.3939428420001,439.3939428420001,441.869787566,441.869787566,441.869787566,443.1177661910001,None,None,x,1.2458486600000924,None,,,,,,,,,,,,test_1102_0,001,2026-02-11_10h55.49.241,Full_PT,2024.2.1,59.90682739061873,2026-02-11 10h56.09.868426 +0000,
,,"(600, 375)",Objects_Dataset/poker_chips.jpg,"(350, 119)","(300, -200)",Incongruent,Objects_Dataset/bathrobe.jpg,"(350, 350)","(300, 200)",,,3.05,51,51,0,,,,,,22,Scenes_Dataset/forest_A.jpg,old,left,down,None,None,z,0.5494399939998402,None,,,,,0,51,51,21,443.1257194970001,,,,,,,,,,,,,,,,,,,,,,,443.118056324,443.1257194970001,445.36730823900007,445.617358833,446.19219191499997,446.1678197660001,,,,,,,,,,,,,,,,,,,,,,446.1838752880001,446.19219191499997,446.19219191499997,448.670047714,448.670047714,448.670047714,449.23470931299994,None,None,z,0.5494399939998402,None,,,,,,,,,,,,test_1102_0,001,2026-02-11_10h55.49.241,Full_PT,2024.2.1,59.90682739061873,2026-02-11 10h56.09.868426 +0000,
,,"(600, 424)",Objects_Dataset/mortar.jpg,"(273, 300)","(300, 200)",Incongruent,Objects_Dataset/light_switch.jpg,"(250, 250)","(300, -200)",,,2.4,52,52,0,,,,,,35,Scenes_Dataset/trash_A.jpg,old,left,up,None,None,z,1.0138122940002177,None,,,,,0,52,52,34,449.2416201640001,,,,,,,,,,,,,,,,,,,,,,,449.2350408,449.2416201640001,451.48513961699996,451.74521136,451.65165606100004,451.718655056,,,,,,,,,,,,,,,,,,,,,,451.736399313,451.74521136,451.74521136,454.22166474100004,454.22166474100004,454.22166474100004,455.25281296799994,None,None,z,1.0138122940002177,None,,,,,,,,,,,,test_1102_0,001,2026-02-11_10h55.49.241,Full_PT,2024.2.1,59.90682739061873,2026-02-11 10h56.09.868426 +0000,
,,"(600, 420)",Objects_Dataset/cork_showcase.jpg,"(300, 255)","(300, -200)",Incongruent,Objects_Dataset/suit_vest.jpg,"(194, 300)","(300, 200)",,,2,53,53,0,,,,,,27,Scenes_Dataset/island_A.jpg,old,left,down,None,None,x,2.0685132270000395,None,,,,,0,53,53,26,455.2596331740001,,,,,,,,,,,,,,,,,,,,,,,455.2531356249999,455.2596331740001,457.50234626299994,457.762776112,457.26908911400005,457.736102181,,,,,,,,,,,,,,,,,,,,,,457.754090139,457.762776112,457.762776112,460.2389715029999,460.2389715029999,460.2389715029999,462.3205653299999,None,None,x,2.0685132270000395,None,,,,,,,,,,,,test_1102_0,001,2026-02-11_10h55.49.241,Full_PT,2024.2.1,59.90682739061873,2026-02-11 10h56.09.868426 +0000,
,,"(600, 399)",Objects_Dataset/belt.jpg,"(200, 162)","(300, 200)",Incongruent,Objects_Dataset/watch.jpg,"(300, 273)","(300, -200)",,,2.45,54,54,0,,,,,,36,Scenes_Dataset/toy_store_A.jpg,old,left,up,None,None,z,2.905438201000152,None,,,,,0,54,54,35,462.327379696,,,,,,,,,,,,,,,,,,,,,,,462.320894423,462.327379696,464.5701721549999,464.82953443199995,464.7867383160001,464.803826779,,,,,,,,,,,,,,,,,,,,,,464.8211112209999,464.82953443199995,464.82953443199995,467.30618425700004,467.30618425700004,467.30618425700004,470.21719375099997,None,None,z,2.905438201000152,None,,,,,,,,,,,,test_1102_0,001,2026-02-11_10h55.49.241,Full_PT,2024.2.1,59.90682739061873,2026-02-11 10h56.09.868426 +0000,
,,"(600, 450)",Objects_Dataset/swiss_army_knife.jpg,"(300, 214)","(300, 200)",Incongruent,Objects_Dataset/padlock.jpg,"(300, 153)","(300, -200)",,,2.2,55,55,0,,,,,,57,Scenes_Dataset/waiting_room_A.jpg,old,left,up,None,None,x,0.7474432310000338,None,,,,,0,55,55,56,470.22494878399993,,,,,,,,,,,,,,,,,,,,,,,470.21744827299995,470.22494878399993,472.47118635800007,472.7321866980001,472.4378233750001,472.7050554719999,,,,,,,,,,,,,,,,,,,,,,472.723558548,472.7321866980001,472.7321866980001,475.2080492570001,475.2080492570001,475.2080492570001,475.9737501479999,None,None,x,0.7474432310000338,None,,,,,,,,,,,,test_1102_0,001,2026-02-11_10h55.49.241,Full_PT,2024.2.1,59.90682739061873,2026-02-11 10h56.09.868426 +0000,
,,"(600, 480)",Objects_Dataset/chalice.jpg,"(192, 300)","(300, -200)",Incongruent,Objects_Dataset/paint_roller.jpg,"(262, 300)","(300, 200)",,,2.05,56,56,0,,,,,,28,Scenes_Dataset/airplane_interior_A.jpg,old,left,down,None,None,x,2.3881909699998687,None,,,,,0,56,56,27,475.98066467900003,,,,,,,,,,,,,,,,,,,,,,,475.9741977220001,475.98066467900003,478.2386628680001,478.500363421,478.0388301360001,478.4724349979999,,,,,,,,,,,,,,,,,,,,,,478.49191778,478.500363421,478.500363421,480.9752815249999,480.9752815249999,480.9752815249999,483.3742204560001,None,None,x,2.3881909699998687,None,,,,,,,,,,,,test_1102_0,001,2026-02-11_10h55.49.241,Full_PT,2024.2.1,59.90682739061873,2026-02-11 10h56.09.868426 +0000,
,,"(600, 371)",Objects_Dataset/latex_gloves.jpg,"(300, 300)","(300, 200)",Incongruent,Objects_Dataset/gauze_pad.jpg,"(300, 206)","(300, -200)",,,2.25,57,57,0,,,,,,58,Scenes_Dataset/games_room_A.jpg,old,left,up,None,None,x,0.3948181499999919,None,,,,,0,57,57,57,483.38100477800003,,,,,,,,,,,,,,,,,,,,,,,483.374545203,483.38100477800003,485.63969772199994,485.8992829880001,485.63969772199994,485.87361646,,,,,,,,,,,,,,,,,,,,,,485.8908138050001,485.8992829880001,485.8992829880001,488.376678933,488.376678933,488.376678933,488.7898813480001,None,None,x,0.3948181499999919,None,,,,,,,,,,,,test_1102_0,001,2026-02-11_10h55.49.241,Full_PT,2024.2.1,59.90682739061873,2026-02-11 10h56.09.868426 +0000,
,,"(600, 397)",Objects_Dataset/disabled_signal.jpg,"(350, 350)","(300, 200)",Congruent,Objects_Dataset/barrier.jpg,"(300, 300)","(300, -200)",,,2.95,58,58,0,,,,,,46,Scenes_Dataset/parking_lot_A.jpg,old,left,up,None,None,c,0.4953788870000153,None,,,,,0,58,58,45,488.7967047730001,,,,,,,,,,,,,,,,,,,,,,,488.790207022,488.7967047730001,491.04063935499994,491.2905843850001,491.767347493,491.74108544599994,,,,,,,,,,,,,,,,,,,,,,491.75879832400005,491.767347493,491.767347493,494.2441135880001,494.2441135880001,494.2441135880001,494.75805969099997,None,None,c,0.4953788870000153,None,,,,,,,,,,,,test_1102_0,001,2026-02-11_10h55.49.241,Full_PT,2024.2.1,59.90682739061873,2026-02-11 10h56.09.868426 +0000,
,,"(600, 379)",Objects_Dataset/swimming_arm_bands.jpg,"(300, 300)","(300, 200)",Incongruent,Objects_Dataset/thimble.jpg,"(124, 150)","(300, -200)",,,2.5,59,59,0,,,,,,37,Scenes_Dataset/mountain_A.jpg,old,left,up,None,None,z,0.4338899679999031,None,,,,,0,59,59,36,494.7647697520001,,,,,,,,,,,,,,,,,,,,,,,494.7583817520001,494.7647697520001,497.008097013,497.258275424,497.2845310329999,497.2585997599999,,,,,,,,,,,,,,,,,,,,,,497.2761344329999,497.2845310329999,497.2845310329999,499.7615891600001,499.7615891600001,499.7615891600001,500.20962340000005,None,None,z,0.4338899679999031,None,,,,,,,,,,,,test_1102_0,001,2026-02-11_10h55.49.241,Full_PT,2024.2.1,59.90682739061873,2026-02-11 10h56.09.868426 +0000,
,,,,,,,,,,,,,,,,,,,,,,,,,,,,,,,,,,,,,,,,,,,,,,,,,,,,,,,,,,,,,,,,,,,,,,,,,,,,,,,,,,,,,,,,,,,,,,,,,,,,,500.2098985739999,500.218206108,500.218206108,504.1605225210001,space,3.9294508990001304,None,,,,,test_1102_0,001,2026-02-11_10h55.49.241,Full_PT,2024.2.1,59.90682739061873,2026-02-11 10h56.09.868426 +0000,
,,,,,,,,,,,,,,,,,,,,,,,,,,,,,,,,,,,,,,,,,,,,,,,,,,,,,,,,,,,,,,,,,,,,,,,,,,,,,,,,,,,,,,,,,,,,,,,,,,,,,,,,,,,,504.1606095740001,504.1760220609999,,505.1595418700001,test_1102_0,001,2026-02-11_10h55.49.241,Full_PT,2024.2.1,59.90682739061873,2026-02-11 10h56.09.868426 +0000,
